User_ID,Activity,Acc_X,Acc_Y,Acc_Z,Gyro_X,Gyro_Y,Gyro_Z,Pressure,Joint_Angle,Postural_Balance,Stride_Dynamics,Heart_Rate,Body_Temperature,Fatigue_Level,Signal_Strength,Latency_ms,Performance_Score
1051,Walking,0.6462603665006226,0.3869432423724868,9.003983934784124,0.041159705134644335,-0.004207789531074969,-0.077441191898035,99.19199099276447,65.70937421836419,0.9166063430080087,1.1993205407015026,65,36.32881305971428,0.8009858684847359,-50.832940111997665,69.09053449908733,94.26545273872273
1092,Jump Rope,0.3649614961925486,-1.5293424475798292,9.240337310216034,0.03415954551826564,-0.0011191402695936166,0.012350730268314708,94.73625854907539,114.32393567806818,0.8999410588161115,0.8646960418335492,69,37.690597963250276,0.2593840210382462,-68.7210936553219,184.04924847945227,100.0
1014,Running,-0.5155325219066753,-2.5328434751845266,9.150946279571627,0.007764992074121975,-0.05315866778696751,0.06286673310734774,102.54634156715929,123.80200473714996,0.740416133527199,1.101130106744959,177,36.57692097495089,0.5819698075118143,-81.43661381989357,87.29243294053236,28.74703501570127
1071,Push-Ups,2.323814214789456,1.7132400423792928,9.45334663856989,-0.09171956531402915,0.02073164476206691,0.01439574097815872,96.02976830708718,142.17213502680673,0.8223974450408761,1.2106433190811114,155,37.97757469252938,0.44371085521898623,-64.98864996481608,61.23309371152621,58.21978650385205
1060,Squats,-1.6748787063807704,-0.8181689984096153,10.906850182189823,0.034059282506205664,0.00848158530928104,0.003942590200858723,109.36041922455257,91.80411082352185,0.7320268991483239,1.436662121511537,82,37.478395355815884,0.022039203667634233,-69.48281248834869,28.555604593915277,100.0
1020,Walking,-1.7570145145964582,-0.07355006015021712,9.685940827627645,0.025100963549843248,0.14219736982628403,-0.014204332647462495,104.05895097233812,159.278511510926,0.944986151227641,0.9319416349570471,171,36.574576319333374,0.04028125816627148,-68.67438945557416,160.72885691100598,85.43188509778128
1082,Running,1.4132497577457435,0.4901983648346714,10.639593545667205,0.020521487659725123,0.05435511810078715,-0.06619806232982021,92.73444552746932,157.39819394732422,0.8965516429533757,1.3641670778642379,76,37.19671699370148,0.8271252422787957,-70.87572215520012,166.7673775515902,76.17183187318597
1086,Lunges,1.2901445762146044,2.443514405023902,8.831168368453248,0.009783703161548916,0.015762246328542725,-0.04802603587945062,98.33389679346934,144.6816741812343,0.8521611810303455,0.891437138153614,169,37.01519073091758,0.6076775614887239,-63.05037703025776,16.32657887738268,38.24417640181887
1074,Cycling,0.5306441684878018,0.2420368869637619,9.416309580419016,-0.04393934441660541,-0.0020804655496662193,-0.0811156844419849,97.70842199459757,104.7330343705492,0.8029046429501789,0.9695649620530651,143,38.18289839797351,0.5238430787368449,-67.12218550371992,78.1426636962897,48.08420160879746
1074,Push-Ups,-0.4319283328542096,-0.592196344386146,10.754013815847307,0.05414813855095557,0.05006532685386128,-0.05515232995566258,100.68494221440767,81.74083687549596,0.75527484234833,0.9703407184430861,103,36.08040618744263,0.9443520834717503,-50.52019690182509,152.47652637361233,50.987411345015424
1087,Walking,0.7536331937856181,-0.7853165719302858,8.994394601573742,0.04490698604083179,-0.0457869335190261,-0.026300411871467522,106.83861348958507,77.37022031817204,0.7319342766499324,1.414235437136183,100,38.239609726166975,0.17311502592884487,-56.965463158307244,189.81255102273025,90.10547672295186
1099,Walking,2.581245445679301,-0.056035261862907935,10.812136460908532,-0.05377113884223326,0.05698189060070157,0.0388008010758493,101.66844030366003,31.576217511406828,0.9907721822610699,0.939312384410491,74,37.630206707199356,0.2579708396587985,-79.41206489155974,81.78547393053195,100.0
1023,Squats,3.7733193118113375,-1.3640471544609192,9.171615909004863,0.06571475052588759,-0.05435717501186496,-0.022253363039779882,91.23113355199999,62.39268464150765,0.7598945925868069,1.3508725088897864,103,37.843845468870946,0.7567390782356272,-60.969739123801055,175.69015196210378,49.686768589158305
1002,Squats,-2.4846205582127348,0.04331358472351531,9.478337484941582,0.006583471731769372,-0.02807619286073658,0.012781289277485883,103.1083139360571,123.4450705433914,0.7179623880164157,1.123264573813734,169,36.00651865848158,0.7752352279579294,-81.42798602461062,84.80687724111706,24.687534074953717
1021,Lunges,-0.6283801788728198,-0.07802953268702115,11.470162587348925,0.006456847657258622,-0.09190897497022298,0.006761460558834086,90.16530595891717,108.47217298609866,0.988500031654749,1.4993635374581176,117,37.57059858509308,0.40489719643916444,-58.70614367674435,44.10397917610314,85.70139770437115
1052,Cycling,-0.7226598944772593,2.4622904229662272,9.364181022833769,-0.008817766820934138,0.03070381115245459,0.024952441774148692,105.59920921080786,149.13488459177938,0.8646855224073481,1.3873640490564738,145,37.47121540927756,0.95097843464376,-84.0976944009063,10.654767317605241,34.405625742326656
1001,Lunges,2.439779207549523,-0.12540170788638155,9.945345802750635,-0.0038996698292527903,0.01249645131315947,-0.051740746575862945,103.33272144822485,36.50289469915252,0.9389970204973428,1.3177921941134727,109,37.34301389096575,0.9382545777151706,-71.05784665811048,72.73439439904716,57.12069008538931
1087,Running,-3.7219424798478027,-2.8867322415732746,10.416436422521738,0.0685449594154885,-0.02807415123830119,0.052959685756177426,96.17571316705173,50.18595841305298,0.7131297541594955,1.4095084146565369,111,37.964667141764714,0.012409715060159532,-58.37575206775702,81.91025963820059,86.62978247022573
1029,Running,0.770752789598319,4.010266455594718,10.026508649672012,0.05165374922992577,-0.04645693954879093,-0.07035884924767964,95.84883609179032,132.60169261577693,0.8700837572438964,1.2438212748235236,129,37.38967774099126,0.17232790234072504,-78.79549190773739,189.57233048859388,80.04217021983045
1037,Lunges,-0.38521546262855033,1.4352505967341453,10.055053348889578,0.05059235418197075,0.06893611133500337,-0.022390660119330368,105.96545993092612,76.60599205539339,0.8194629892353985,1.3905565795699484,127,38.142742973899644,0.8202194416838713,-56.515234994733476,49.153347959918335,50.942363627033
1001,Cycling,2.4571691243214606,3.123523116143377,9.743460256018267,0.009228217627268909,-0.006680196880158521,-0.0010452703888289149,105.6667338384924,45.384893383324126,0.931589330304965,0.9827887931530191,122,36.5815787160241,0.3352166848260083,-64.23397163864112,82.6238345233259,82.59929999058342
1063,Lunges,2.2515582600066906,-1.7359799804767264,8.497760790983678,0.04445858617671983,-0.03836476872602879,0.03800724240748737,97.0460470875352,159.53856566301158,0.7115276936917175,0.8683922477707525,117,38.01495647242925,0.09546267869982838,-74.09910683571137,14.7792846663915,80.56885842421869
1059,Cycling,0.5482601022400391,-0.3327401718844379,10.14828933009976,-0.04171565370202859,0.09609664818090125,0.06896546677753768,95.9789545615956,132.34253934701718,0.8205071705684843,1.2311524049606681,82,36.44828193206202,0.7849991744235836,-73.06333162774912,155.0725496673634,67.17733372589282
1020,Cycling,-2.3695846060676953,1.0116018622414789,9.067531542988347,0.029172148924903343,-0.032853145957085626,0.03840157600641951,101.1964957776558,83.13633477855593,0.9397220258458587,1.1042832748645102,103,38.03279447992245,0.45458350557520943,-52.96033864320579,183.87683488844746,95.87434169300282
1032,Jump Rope,-0.8608342235026998,0.8045870584266887,10.575767217403177,-0.007674401598448368,0.05693085357268929,0.07079581787279293,90.16731319968288,137.03517200299825,0.8568091793915109,1.0985085567047024,168,38.35115879707142,0.49241078671537186,-81.28835999950483,55.185922982533455,44.56086559439275
1075,Push-Ups,-0.6965866149206077,0.4604065610393276,11.172061423949685,-0.10299024937041612,-0.05754952820052868,-0.04145879647536524,91.65334075973085,118.47850311548994,0.8650116222995812,1.1687234967010323,142,36.83923535577596,0.18636938881617127,-62.26549539301159,91.50907102163126,76.63303380791173
1057,Cycling,-1.9896821916801972,-3.299416077750831,7.994442738582985,-0.07930508294109817,-0.01774731151034864,0.05951852400356048,92.52339180297473,132.69671874407834,0.7291494045897896,1.0529678280958799,177,37.32471578495047,0.6608950539389278,-61.708231770338585,33.20139805953886,15.43068586786216
1021,Squats,1.7318764227890548,-2.568659186346471,11.173807827427105,-0.033148939004461,0.02511456126911933,0.05093283649566504,93.70823635654348,135.97682908353448,0.7396991668360273,1.2382416720099805,168,37.645822557307866,0.5512413181226177,-53.102012272654534,96.79873175944924,32.32745021416992
1088,Cycling,-2.180139745911609,2.276280163595808,9.388942208132958,0.020757699217435508,-0.0028918474802012628,-0.11981375285128318,100.24036253350938,41.01472882774133,0.9030998816097358,0.821397857143341,154,36.19867916463624,0.2066729377890758,-61.47342924970637,35.33506809237813,67.22240388497909
1048,Cycling,2.9479912626805684,2.5429942993045342,9.669050777815528,-0.03310398941669846,0.012188151075652638,-0.011023212194713819,109.84483829722244,110.98647539945243,0.9025139866869759,1.4789239393172342,103,37.2352017955103,0.3403315084392068,-66.62130327766499,109.4362139396389,91.51534866185322
1090,Cycling,2.9442339510681874,-0.15997693715459352,8.887612547487612,-0.029555836869235443,-0.026941742301200236,0.030101871169089123,103.05226803494708,30.882121886987587,0.993731018275682,1.4472962944318994,111,36.90146244147061,0.596879287336172,-53.899098439348286,149.57818768212428,79.22147295311319
1058,Jump Rope,-0.5775903927892594,2.0856412116095733,9.988467729066278,0.038163046093742096,-0.07988980759497971,-0.025770693272271935,91.22597588898446,35.64931201915218,0.9135858964196651,1.4546891138073534,126,38.18113907812827,0.9248722554334101,-56.834718814064075,115.13512721469195,51.338216273000626
1041,Jump Rope,0.49274305519472406,-1.534841649214947,9.866814883177407,-0.027750605972484355,0.07327881921823552,-0.054291258614811835,100.51158748124483,147.51740117725933,0.8479730487800341,1.055502446908603,87,38.191698796770815,0.9203763503214917,-61.32894180663095,56.59171989360143,67.60809246841498
1091,Running,-0.10842521710563614,-1.191639080203021,10.876922825292851,0.06654036210172055,-0.023891418868703457,0.10570876089709376,99.93290424779009,98.58328377638472,0.9571983470600658,1.17232367036137,126,37.75194884886809,0.287905904397483,-88.69686470431301,77.22123723909198,81.46284745211264
1059,Jump Rope,1.3527372005425355,-1.653420482794724,9.058606723369744,0.058256186991006736,0.01445062277661694,0.005552007548545335,92.88335631636099,125.66725816290823,0.7313418957447808,1.4678914221403025,137,37.639311186481244,0.7356209777598849,-75.05918327038555,131.32882016407015,37.635497936602064
1079,Squats,1.9120160078471389,-1.2748793185329692,11.46080240193791,0.0010940660285659154,0.0350978745816163,0.006920271707703047,108.40544737604816,139.005128757609,0.8347887462688763,1.4316422394993107,77,37.83422114818964,0.7755190805238095,-64.72441311192583,122.05352937997178,78.24446854921476
1014,Squats,0.3869954881800992,1.084044014283929,10.46471408630889,0.03767307258291644,0.015437910215569657,-0.0654497057437533,98.81530495350738,153.44627978339605,0.7861327332782709,1.3531711331308032,86,36.91496725250702,0.8088230999827948,-69.1099790257294,35.98720974305336,67.19247691693259
1061,Jump Rope,0.7036750646715941,-1.2935285595951667,9.89096897677541,0.0308620227178191,-0.03542956334691077,-0.030618049789811964,109.8911828121948,143.01587022996347,0.7313913420782876,1.0851321128933147,110,37.01129811687656,0.57076228475148,-77.22726694008625,170.54039997755953,69.19293202277481
1061,Lunges,-0.9309063959092745,3.3596145598917975,9.61921563610451,-0.012283263797970179,0.057988248097588596,-0.04489203146859516,98.40144590504329,92.83048833064821,0.9290506254161099,1.1950374562275214,119,37.38426180722176,0.0105079980995878,-84.22304337960894,100.28589332693294,99.15712043845282
1046,Push-Ups,0.6550709503355077,0.690105909521157,9.493430552866151,0.04308173314860732,0.02568395875124345,0.05394876150696515,102.15915405367218,73.6761399594665,0.8532376091496652,1.3550387319516535,133,38.34507031841117,0.7616762854462485,-67.88013669244313,40.85015266001467,50.72590410230163
1061,Jump Rope,0.24414311838597136,1.6267905697426324,9.558656225593495,0.05044510276952635,0.009938682517261425,0.025231681046302596,92.0952507290288,50.08412070678496,0.8670306159692471,0.9911083968780223,108,37.809999685298905,0.10659744982935004,-78.56329696551148,33.33704308919856,100.0
1050,Cycling,-1.3676917331270353,0.7349108742001098,9.968401956935475,-0.04762176153952002,0.008779240179294474,-0.028528184640326477,99.08455647613738,82.04179272334639,0.8233765563730987,1.238514557759678,74,37.37747311124056,0.11687138622040183,-80.67998040764014,193.45483718257475,100.0
1054,Walking,-0.021055664014666832,1.8214044756889183,9.591000039306268,0.007677431916037064,0.08411311721285286,0.02802501193331073,94.77531788007947,77.64416529095124,0.8381011694808205,1.3795540273962996,142,37.92603253724179,0.6056248026461527,-74.04167091780266,63.49167112297374,41.04114426961072
1063,Push-Ups,-0.5747737769791097,-1.3019999993078208,9.159470543492514,0.007125191128808279,-0.03650311096265746,-0.012676007287053863,106.7112959714247,102.74472945426353,0.7348052161369009,1.295218354213031,132,36.92722578059606,0.9835205210253016,-58.58034267142926,182.6327817041114,30.98235387190394
1002,Push-Ups,-0.914243372727088,2.170400307299335,9.974459294836704,0.04248097337253524,0.020762791418387334,0.011724535898927087,105.6783916973508,116.51622313843775,0.901875347286093,1.1356364418337006,127,37.82616675286093,0.24253947326579983,-70.48585990534751,88.0112067660984,89.776678873341
1050,Squats,-1.7197368113993519,0.21140832838715534,8.963711881274612,-0.022192917522466837,-0.026431474580008874,0.011488194359285317,106.48359999250717,157.18231193785618,0.8297342078815642,1.2092258516886107,74,37.02669062070675,0.6458108800512076,-81.3403115800532,83.32507178610615,73.13276288466044
1006,Push-Ups,0.09375409987421393,1.8138991664531086,10.122466901001747,-0.029888016638821437,-0.09681529031700016,0.02101336052397995,104.47218875515902,124.69020419309523,0.945030271938875,1.492072880202056,110,36.69915351753747,0.303653645737601,-85.32387430879807,143.17650423339208,92.721340718267
1020,Jump Rope,-1.1707110094880153,-2.1593460800642763,9.576932964519258,0.00844998301555768,-0.09813672624314404,0.014982596169837301,106.65366447240103,113.68730921758002,0.7588861600429228,1.221391456253047,107,37.52431011880573,0.8987261136105297,-70.040509449008,11.877824677337673,42.3626271784464
1072,Cycling,-0.7066622584540491,0.27087480991254453,10.496730909231845,0.05906796116267865,-0.05073181874883567,0.02105248255824544,94.01657500349842,73.56201645488454,0.7615165280256507,1.3499324278130507,131,37.71719389912546,0.593516892113864,-58.22534406311062,74.23700910977419,52.52418458988118
1038,Cycling,1.6126864128259335,0.21785807517249783,10.789074210695478,-0.05996885577049669,-0.032922158300614776,0.0627904155242787,99.04087553159603,34.48550394478238,0.8937278714592063,1.308623335064364,172,37.14823390294891,0.20747732765647087,-63.887279053842384,67.50268531644369,62.82968279453827
1017,Running,0.9481741519025668,-0.9288546974691623,10.788680560344739,-0.05124030766685639,0.1086474874680432,0.0320281376536762,103.83693759891936,67.45626675110992,0.953801027019219,1.2910434308705543,176,37.413751828388754,0.2621310504454283,-80.71404479427001,174.93863791396882,70.81828084513151
1003,Cycling,-1.4681499717918802,0.4696782446208962,10.118105056052627,-0.026025245398529424,0.034919421715304454,-0.016845088136297977,102.7478499587027,129.8982270597503,0.8416593515854526,1.3014583385798306,60,37.73516518713989,0.43248073041812096,-72.5317365724203,110.53347241394881,95.81762175930568
1088,Cycling,0.5278366018596541,2.309410272002272,10.234831220766846,-0.01712885360407762,0.039417151042971006,-0.004897637299258737,104.32708965748174,56.685352304494224,0.91808616061993,1.1180868258970247,66,37.91927512889377,0.1220435620298127,-55.79078546623725,79.26832987260786,100.0
1059,Squats,0.19917104739623284,-1.0442285384446817,9.477248973881565,-0.08827914012187575,-0.03185392531251781,0.06150852939985332,94.48516766302464,122.58446517763488,0.9997989764479257,1.1319121221626878,112,38.23892869770769,0.07873336826348165,-82.89376368588644,60.555068956946435,100.0
1013,Cycling,2.5525443128001912,1.4427815343074077,10.477639688483348,0.0749097643457574,0.0030663584759724073,0.005621122747410734,91.96869418089979,105.37137953402406,0.9970796919186784,1.1275039161525475,90,36.88636051566082,0.6800613957479561,-68.71677717268412,122.19686367401953,90.95661257620529
1008,Running,2.074717501308412,-1.6911345842197623,10.590501360661724,-0.006515329567455601,0.11530764923731074,-0.01870092086785498,108.33613156149553,52.34139306756043,0.92330105284651,0.8232782250488258,77,38.37869313213148,0.4071650620891203,-75.75073964956634,38.817896703239285,93.43738208597152
1089,Walking,-2.300623088564754,3.1641668919636885,8.232670846475473,-0.014005226208998568,-0.060720883688878236,-0.0315569171065018,101.20343791134717,64.01122481793789,0.9218759469034746,0.9687457312326264,71,37.59319952530772,0.726225791870277,-85.03280980681923,56.7789060166685,92.45400435338466
1052,Jump Rope,1.2916915034379015,1.1769004776550627,10.178347195607264,0.08113187690177087,0.022811939868365706,0.013651905408312357,93.07651849014822,94.51946845324194,0.7742856661596716,0.908194804654918,107,37.96925470674737,0.11005820043762149,-88.00384316356407,65.78631136230246,84.77237911211489
1001,Squats,1.8977958774355483,2.5876759983878586,11.168129807708867,0.03588967475619063,0.08056478834551316,-0.04274284012727881,105.86873163774723,84.38871166402018,0.9500618894631321,1.4205115079780801,89,37.7494226087036,0.6098655479010957,-67.7651446141682,125.50270004531879,81.29652904461621
1083,Walking,0.8390388130924966,1.0080907786406512,9.443709705395216,-0.026771093866667442,0.048297154273611996,0.06423977119171533,108.29859873258565,131.21330018107875,0.8215306381141362,0.9924785565170644,156,36.513929313371015,0.44330679336974044,-89.17004505038484,80.91844221313033,53.83373778677412
1091,Squats,-0.5031182155412862,0.5859197665940425,9.225453023866121,0.00823039226540777,0.09007698069626169,-0.05189091768785399,93.39127037142218,125.47260353062211,0.9885981729600468,0.8969098441258783,170,36.17859595752207,0.057998654457028564,-85.8621553322826,106.0988270228094,84.79589294749393
1059,Lunges,3.6200908726757044,1.1893994107288774,9.380136538913682,-0.0020868566188239363,0.010643262826356432,0.07390338627597108,106.34824910538221,104.69468545149222,0.7244283066120806,0.8838368523376194,66,37.8157161600453,0.5448019782759769,-76.09742875353035,133.58327011565146,79.12573337128512
1070,Push-Ups,0.9771139213905337,-0.2046711950312572,8.295124007170873,0.07241754284646383,0.030172651259354883,-0.014261515793622451,108.66450122638257,136.89571249148028,0.8307521106618178,1.2899928841865111,151,37.27763166948644,0.08280427471454577,-88.25919258576948,191.6916041534606,77.6042055616008
1043,Lunges,2.9648164105923414,-2.426750858337483,9.925983954448911,-0.008371210084179657,0.0054887193395186445,-0.053836867681382794,108.76723200592035,103.14704028896013,0.8667521463050496,0.8042583176404715,172,37.755533421020814,0.8277197477910081,-73.98219094192461,155.31910544952294,33.50863318131742
1007,Cycling,2.0272176442102605,0.6710990197001886,9.829965440097252,-0.0721029770929105,0.02666727795697904,0.009458786928268816,108.28312923307003,155.37060336544383,0.8215468621258495,1.1299130812295557,62,37.19210700978865,0.6319574653900288,-84.78539903292436,86.99878830870045,89.46954124575471
1046,Walking,0.6962019903349557,-1.1332550018996321,9.997026832877301,-0.09386120534026479,-0.04576032061517115,-0.047651957910714464,100.92842024720206,58.23913288964059,0.763173757151483,0.8832097739187375,166,36.78058630104126,0.5569675337604484,-76.00507637199384,152.1723211354788,38.45069245233918
1034,Cycling,-0.8695513672104411,-1.6524928730691033,10.215976621217802,0.0737580673703344,0.03961742044718411,0.0017185880515130148,97.12422634507739,122.83715916827985,0.8778965466347529,1.3947643643451335,122,36.71254477314892,0.13346900446965904,-58.35361251639727,190.4418943746504,94.99800328191618
1077,Push-Ups,-0.036157317228752,0.9544397526579149,9.002006597818525,-0.039430734888131515,0.01471241563835282,-0.02887717657996662,90.14545615388019,78.09273716708083,0.9267753743875413,1.4709152495167208,65,37.826330327174986,0.287457113504083,-64.94542622093368,104.88230367428372,100.0
1080,Squats,-0.3328686791903298,-0.4186627123495409,10.073199199022044,0.0335105827816655,0.0031329683127273656,0.04725366339345457,91.21824453743054,66.2656052746252,0.8934515788060589,1.4711282313504326,154,36.69195020366443,0.49287589713529933,-72.18395688849964,87.99441729334904,46.26643889618197
1035,Push-Ups,-1.821778433473905,1.5415566099085347,10.24319865991573,0.003588171535752598,0.08731958189079271,0.006837480496881609,98.5767803059478,53.450371875802674,0.7703346546424118,1.1093748762627385,161,37.786692177313554,0.633283513639688,-86.32666768579358,24.823552810139944,22.26754741057166
1049,Running,0.9754223624395544,-1.1834111531386053,9.311608269182969,-0.020832739393912874,-0.013269269955238725,-0.05942504160372675,97.98652292783021,101.8254519140007,0.9194823833105572,1.2511603771043576,74,36.95990031579345,0.18323071874215557,-65.23401362741068,179.55037042366382,100.0
1003,Push-Ups,2.3510295029391135,-0.7062434647707397,10.220117998251974,-0.01299237085015628,0.060391101731021635,-0.02985182702130027,93.69427819139766,58.01102625739746,0.777069341813369,1.2197928955575212,130,37.927246010797006,0.008866278133623395,-83.45161389963799,56.822513350794566,78.82153222339839
1001,Running,-0.44745524182717017,1.7254440394520902,9.880706626386742,0.07916889407647665,0.0653639298549878,0.03524736247965647,97.90960056063314,56.04561068829277,0.7525607088772119,1.0450272309701671,102,36.35702481445667,0.3447601872692956,-86.93654624553541,22.152000395636513,74.5382712600775
1005,Push-Ups,3.2454847488371055,0.41976399149641297,9.16881023055662,-0.07240317143215624,0.04277721922927316,0.06435460518952377,93.49300130910736,158.76914766089632,0.9072004046316167,1.1108451439943718,153,36.51244985801086,0.4828714545562436,-63.44015930161569,112.06866245230579,69.52643768998294
1053,Jump Rope,-2.3363741787926005,-2.2159920613592097,10.082788696483677,-0.01932276153779628,-0.04825498353682897,-0.0022637403733841888,106.97582505551681,134.2271641899489,0.9528361738341787,0.8450265880633,150,37.71477901430041,0.18443350559680305,-53.5176040871597,170.72093273268976,77.39354268207508
1003,Running,1.5815453225808054,0.3866413242901665,9.509289256646781,0.045328288034185066,0.01795391486715776,-0.05221982809344519,95.96389755751198,127.2759866330688,0.8444618343089723,1.356989322870041,140,37.400577800495654,0.4921655058552058,-71.5762625291791,87.26066056837996,59.14558668498126
1053,Walking,2.507280353108115,2.221857822883205,10.497065274014387,-0.06415725042231281,0.09792371505657499,0.05270181554254441,101.9712870031662,133.22788136475816,0.8594175379415313,0.9685624585082333,178,36.509695856553996,0.3384858585692687,-88.36016357567544,158.78281933021307,50.07980305462166
1092,Cycling,-0.30604587147159085,-0.7178661669322006,9.560833619930962,0.06586414038887924,-0.09092767673433519,0.035028183744668755,100.05686123998174,155.95997358343652,0.7908242711413697,1.1223691317954634,77,38.257067529317055,0.4550896661064078,-54.78809130325836,168.9152413839592,86.76316100344373
1062,Cycling,-0.27908475771432134,0.8970865446793632,8.51023441823494,0.044612485787681275,-0.009382924714810052,0.06532697921512746,91.03764155187984,104.52596953791645,0.8483854045330097,1.1364345135316507,81,36.68986036853162,0.34745775057859396,-87.32104935505704,96.3366761757741,100.0
1017,Lunges,1.5641477637666017,-1.2740803727338577,10.066986985527652,0.013589784256616845,0.05811542598340999,0.01451045592106533,108.84467438982333,58.631704062371874,0.7395948994037221,1.1924982174059227,120,37.05267849548409,0.6284678497868001,-55.299470291936515,122.28146252868999,50.66308133488274
1089,Cycling,0.7589866649393018,-0.20517491245414354,10.029403247831436,-0.02515784521371338,-0.005766029989381898,-0.026029845789844647,100.54451956500967,142.08725329792108,0.986749248904897,1.372513646521663,179,36.505719854681345,0.04289701099357168,-74.32722507108275,111.44333672239861,80.62682756246232
1043,Squats,-2.9961170151892604,1.6347533046756504,8.71886288720234,-0.07057830775919786,0.04049439084869364,0.025844424269778978,96.50115286783631,126.55499482903171,0.9401081960969788,1.2843167323286249,120,36.97006904585378,0.17090528994427356,-75.38421845507641,188.4472137105553,95.81685804672104
1033,Jump Rope,-1.265059731809071,0.3288475016324603,10.550536115435307,0.035352294706703535,0.07045955142995615,0.016316461172079088,93.16253139266136,83.8600806034425,0.9003919182466554,1.2641441343904345,112,37.229116875278685,0.4327508691109996,-68.28810482174192,147.84608016743465,87.2363100836365
1073,Push-Ups,-0.020324322071189605,1.9339047940734544,10.498220836135479,0.13743224672419438,0.01160031415744013,-0.028743684592301734,96.77053269453671,91.56403481470403,0.8614583115053209,1.168721847063458,85,36.7381176362823,0.3562967155518567,-51.716607302231246,185.81513404632148,88.97124901151687
1061,Lunges,-2.0545472695276006,0.6379536063417924,8.930019807525092,0.0072946267958429074,0.02544952604277703,0.009931929192370306,90.41023206046779,83.46281180225299,0.9376507408683894,0.867169028462613,174,37.922734182991206,0.39163195595381706,-54.05037819656087,51.80189583177466,45.91566299533522
1099,Squats,-0.7112614746448555,3.3281095158012626,9.140373698940088,-0.09130227053659505,0.004593546679010043,-0.009751294441102324,97.27116310696596,150.89248082977053,0.8484271718757412,1.081405930155603,150,36.98483244661562,0.8037606948804797,-71.18679646780932,68.9450018482074,39.8034273775815
1013,Squats,-2.017028137865901,-2.347370053828904,9.657992386970474,0.02287582450633738,0.01489029409851584,0.03717689224918402,100.62971854609009,74.65910949477824,0.7899921724463597,1.4701217959033865,99,37.82377499989692,0.8863316582473657,-62.16707075904726,23.473559904212863,50.94538274726418
1094,Running,-0.5552559458300855,-0.3257900250914473,9.041147868962362,0.04301314857005978,0.10513012174481354,0.02460034551577174,107.4373249170189,155.25295622530243,0.7481122705500016,1.4968836527017768,147,36.51768043847561,0.24866878349757005,-66.7828299062635,104.98251177220345,66.20218745324065
1047,Cycling,-0.5049340909817411,-1.6268006899380771,10.440397184911678,-0.04589262159479686,-0.0031974246340323803,-0.052579569664059495,103.74748835395596,148.33533026301347,0.8942756766405422,1.3113487022706427,175,36.942588741982945,0.8363910602863055,-62.2615368374733,176.04549908332305,29.69268671382261
1014,Walking,0.5276320148905702,-1.524373761687374,9.94897194932721,-0.03227559630446979,-0.017657701897279037,-0.057621128968049544,92.23164626266482,111.96774849226253,0.9788277235079542,0.9592604741522516,67,36.02014572223884,0.4587898652903578,-56.82690159751612,72.10087245483598,100.0
1071,Walking,-0.13763898599925092,-1.5107755407090595,8.706442854111765,-0.0373689114373146,0.05208771145098812,-0.004490558678677681,92.95492648875923,105.3768305030097,0.7460855660513053,0.8713234522023772,80,37.896593959784276,0.2738206192862208,-88.62024684525625,34.37360032037299,89.38070081796062
1077,Lunges,0.7541845815611342,0.25158873307683055,8.97752908715071,-0.026568193343184443,-0.042146116612089654,0.0016409642689657865,98.56246735636749,78.11160640909621,0.754005413515242,1.0903350513323395,152,37.56471661082621,0.9854560710046784,-76.9696058428841,23.004788436520066,16.87103480451297
1086,Jump Rope,0.5753160112108823,0.3394514022328007,10.987719177166403,-0.008608155713902298,-0.030736072863262034,0.03804883870459133,93.91415503277575,32.38399057138449,0.8300818100228605,1.399600331651535,102,38.04455831230114,0.8248017914341673,-51.62683567064531,95.02505177949436,61.05562512763674
1061,Walking,1.5470099913964657,0.6411838874926745,11.335562377915416,-0.04304505542467515,-0.03041726469763112,0.02566519552809445,90.55699555165512,46.59101421090793,0.9420698043759067,1.3053049679265003,80,37.139026970256786,0.994253319086536,-52.026547659003036,41.16413147946503,79.56794168646586
1039,Push-Ups,1.3106745614401738,-1.6845908402168277,10.33872897605251,-0.061791887067611254,-0.012793726122902012,0.07293428216063712,106.10029760236141,128.05007203544133,0.7881768186914514,1.4187245662787733,62,37.9993516092821,0.16819078442825464,-89.5511644009015,75.75976548816966,100.0
1084,Walking,1.152185752702075,-0.48633722849743566,9.588724744849687,0.008718769283750859,-0.01060997324350292,-0.023359673213771494,90.39045141395988,91.30021645646148,0.7761738774010084,1.2310434202883567,90,37.618956360677444,0.14384267394785866,-81.94239480310534,165.796163535663,93.51112584565654
1079,Lunges,4.657301142700082,-1.4464419596345524,9.360037087593424,-0.009133101993185035,0.034954979483275354,-0.026214303471360348,106.61379210396028,49.47895744443585,0.8859898874388501,0.8912298552127846,178,36.0090323313356,0.5033779529442393,-50.249198306225495,82.96900272392963,48.454175321469684
1081,Walking,0.5211039549634932,1.4038223344075738,10.349699418311006,-0.021812088505840835,-0.017118081762933852,-0.0479907002822522,92.88207926065932,64.31491103714322,0.8606844345622995,0.8803571768987148,86,36.634235737721276,0.6386437600345539,-70.28699696402057,125.8754744687076,72.71293871413039
1052,Push-Ups,3.8903572557882926,-1.3054013252714602,9.875920534259487,0.004159485836075715,0.036973173461759344,0.037470355738754006,109.49356821614232,153.21879698010997,0.7180661093335708,0.8336016118410905,169,37.23472838051562,0.17106009253335164,-67.0853598413259,105.41041060633482,54.695967971789266
1023,Running,0.6183276033659002,-0.32056822799382223,8.189928552585624,-0.07600878527792221,0.04320903524208913,0.0010876092007980384,102.0774782365238,77.72726859033446,0.7244469931927829,1.1969559794014717,86,37.546718374279926,0.8604306680885426,-83.3431925791019,146.52132566430691,52.391397026391914
1025,Jump Rope,-0.1242763722088379,0.8404596619846585,10.831867982534831,0.013160146149838004,-0.03267555996665202,-0.09268017584808232,104.69965943259791,147.99865287848996,0.8929038940554298,0.9700203656373524,132,36.16397716166159,0.5320134786633633,-54.22657564965882,39.67134220763806,71.41252119993293
1088,Lunges,-0.5597477733197955,-0.9234430117463471,11.14580326736287,-0.020784410014478137,0.04213530093492255,0.010108268885394638,92.2096725593613,69.60265819816497,0.8395370797443338,1.3140685489484654,116,37.76269982045948,0.4109418332206475,-80.74942801403549,184.88379693188756,76.87584316645898
1059,Running,2.264588697672644,1.0408176674709806,10.5372525329432,0.01197447340563898,0.04667092414791442,0.013298508390853545,107.2420814690296,100.61861226773091,0.9912931574767441,1.280374955100255,156,37.35884024411815,0.6020536729270451,-82.41409479921853,132.29023153450672,50.60692802666334
1040,Running,2.460755089331907,2.3941196032997234,8.708388805371793,0.019982455270948385,-0.08804682183154294,-0.00721734713739218,106.78384685743077,32.66202083708573,0.9035594232190194,1.0226775196858218,92,37.31444826704571,0.6349537129722892,-80.87510386718688,61.48120900022038,82.66762009684243
1028,Running,0.8996757839470936,0.28456759308828805,9.16317355027666,0.056557563914308884,0.014674047643698344,0.014832742647920888,103.05985463083435,97.843764348565,0.7030220985979694,0.9237611665248451,149,36.730113895244784,0.042783280983794136,-53.21513189435965,33.418204546231216,70.234453706043
1014,Squats,1.7003201617540586,1.3524163718526108,7.942280138642289,0.005147720849445572,-0.025320405415045672,-0.061011784961286036,100.04549729190775,112.80246137938194,0.8443056339401385,0.8716802448572009,151,37.48705774872644,0.9998926667050493,-61.88613171292603,38.44785718777616,27.418169285293043
1044,Jump Rope,-1.915830698884625,-3.110131333404574,11.396048491395558,0.053335941502716325,0.06515324901662213,0.08205159170500137,104.42978346263345,60.45966291383313,0.8243343805106438,1.316120691669168,103,36.06873222407944,0.3639195768044755,-59.256144220389,158.70595611026053,81.67868042158567
1064,Cycling,-2.3231697337683177,-0.6435778902717759,9.443261436740972,-0.01609565705650452,-0.025830309263678138,0.019012971303796145,90.11856430673757,105.26183290669641,0.7320141579981305,1.1153086967981531,102,36.16175082625997,0.06154264690989619,-74.91854567262989,121.74091012946201,85.28723264668957
1088,Jump Rope,1.8694903286961804,0.27735122539346535,12.133289321649784,-0.013708875668221168,-0.06697415776553349,-0.08868494415393112,101.84881510796919,114.13181036662812,0.976962650761657,1.0264709399246972,90,37.8346752180321,0.8523231747755152,-53.632919402777546,82.34407523645484,86.05766215474767
1070,Squats,-0.19021724685453273,-1.5794476176004602,11.755230030907779,-0.00454640864118376,-0.0014908408334413862,-0.00029485496650545064,106.94812269858474,119.29519018962834,0.9415033897245171,1.3996571110644185,176,36.80472835633491,0.9930186792123122,-58.423681906424406,73.2511607755072,24.184820280187854
1008,Cycling,1.1239536260962544,0.3114740031061376,8.896573583631056,0.038706245033910604,-0.044848615204955894,0.020336009982605725,97.13799774349509,130.93243186287341,0.7690257725260006,1.2155292515985687,124,36.86741768906121,0.8163585092160902,-59.97610549970715,172.59402083610073,53.04230187178707
1087,Jump Rope,-1.0759319249341173,1.5899108340887258,9.091732260596988,0.031547953851145664,0.042479263226894416,-0.055646603746152434,92.16578712965834,70.47410158082414,0.7767942276528992,1.1626016354776092,143,36.52096300814113,0.8518824898598457,-51.16238865308193,176.20487951847758,39.36197350722477
1000,Running,2.485482704557163,-2.8193409420150326,10.266190342347121,0.006753593993089698,-0.04043062494408937,0.026681513950671892,98.41754499486413,103.81100433614417,0.7096054159958353,1.320365415482931,135,37.11405173024983,0.6259351142194509,-75.35212676826606,120.43978729966565,48.82350421414468
1007,Lunges,-2.3106280078335546,-1.783609298705771,8.04545789613373,-0.061386767080226085,-0.0008753224594138554,0.08404628115043326,104.54208898117014,157.60527386939728,0.7890152354737122,1.370908198164702,76,36.129983578528254,0.9223255782209329,-65.56105412816476,109.6633724763569,65.1861115799519
1087,Cycling,-2.078377629724033,0.277219906146278,9.361740882621438,0.030652958788316295,0.07729052135820821,-0.03221845302747647,92.14602420741345,146.75874218647044,0.875386602674006,1.2802512087959037,74,36.750908058927784,0.03573855172746754,-53.60281204091135,165.1251279945486,100.0
1062,Push-Ups,2.166467375568517,0.6906295941600716,9.261840998793271,-0.04307023173914855,0.05492643111070682,0.021421934793497202,94.1209712042578,153.84650565278764,0.8262530165160005,1.108004423019547,93,37.317809804444245,0.766723862954201,-58.3644422725619,152.3736841609313,70.18123386513737
1010,Push-Ups,-3.914762689474351,1.1071205623644762,11.65116594194671,-0.045794869689986,0.023891960164447456,0.010429929949609847,92.951036936574,80.19773180871428,0.9907766391159043,1.0655091548705313,173,37.16407980389784,0.6707102283340756,-67.4648416709754,86.0617848322798,56.80211064932287
1080,Walking,0.5678533021423742,0.16633421833165182,9.961017885504456,-0.056924254496884145,-0.006378885627613734,0.04841449999061907,105.9389551115045,132.30065376656603,0.7168240507791013,1.3401654567908916,139,38.49917410780758,0.049584970524002236,-86.95145260879204,25.720350102662827,78.56935961005222
1007,Cycling,-0.16098899339486505,0.6922686075237134,9.515233022462805,-0.004158435540101771,0.01914482281055442,-0.005442095231207117,91.25785244904974,110.58673372884522,0.8774290476697032,1.1625350124482003,63,36.971911630292276,0.5439735789764794,-63.89106241777307,156.0150203989278,89.75824126240705
1034,Lunges,-1.1039278788000446,1.3552210628110215,9.1685152673147,0.06058621492353439,0.0344491976362527,-0.053335831318093455,103.73173004228866,40.75556079809134,0.9574928321521143,1.2930702549621635,131,36.96749764813577,0.5150603457578695,-68.93777772528591,42.05319549864631,88.02025288089736
1034,Squats,-0.2999097728855532,-0.6216871526554892,10.694049597324796,-0.04826802721901069,-0.049330118160774435,0.04520911234873532,97.32913841506382,137.1174505904185,0.8442222737229168,1.4232791523563864,157,37.25895444353615,0.6915342250769767,-82.63278154061494,13.111612230910884,42.606229097098385
1032,Running,-1.2712852396347152,-0.9128791290096314,9.303289176069592,0.0839287976587044,0.04256686219619198,-0.05036302953600718,105.11582485770604,118.0231659264574,0.700888816168119,1.4411234443156924,169,36.475757775678076,0.07753141160917254,-54.70987506629611,170.22750828875826,55.607967145790894
1004,Walking,2.313383919072749,-0.25275994640230254,9.749717025637501,0.04549051112267861,-0.055084702627854046,0.09044306889464723,109.28766837568075,55.85925673698468,0.7728404499478825,0.9944009474684009,148,38.19076105739789,0.805278785328412,-76.27005620405026,119.86823061397654,28.54369026325248
1040,Push-Ups,2.7067456325424146,0.2992319134161198,9.160876477528037,-0.07323010316253122,0.02862259675061382,0.02803846745075836,92.29090599172964,40.366012465829975,0.7971306927003898,0.9315229651907599,138,37.43066947216112,0.13940344201150467,-74.50080425930813,179.4165467517941,68.92201464492761
1027,Squats,-1.028606380182517,-0.9874101648019771,8.282462867984606,-0.019138759108916062,-0.055344520227482055,-0.029944636830768263,96.28770082134918,138.81287698428298,0.9897983483672388,0.9829011522357866,87,36.48026909799856,0.41866461346187267,-63.103938048143576,102.07173580754743,97.3525084313766
1006,Squats,0.4132873162027968,-0.590635974709818,8.803964872297337,-0.05201251334954026,0.09813981216853071,0.0554325806253129,106.20250855437715,40.25723783385614,0.9735319845516098,1.325960239374852,132,37.98360397843033,0.881288007501636,-70.44805031835037,186.03140913516657,65.80705899470628
1072,Running,-1.9876147064040708,0.5965526557609436,9.298028292635307,0.03324777288678581,0.03816708124685194,-0.000459451701544282,95.32316772102352,41.87600249763676,0.9847511515322891,1.0590406252323121,61,36.08583042785713,0.5605316054954964,-86.42875694883402,77.25463211598412,100.0
1071,Cycling,1.6095782385046902,0.23662617154457294,9.536745169736372,-0.04940816738352047,-0.07780126393929772,-0.011070278049701156,94.30241194092082,85.56307742756098,0.9477275372850905,0.9213724965889308,76,38.456410501463566,0.3795909137547343,-74.50233530579061,147.65918044351565,100.0
1011,Push-Ups,1.5705137619649716,-0.27800568422363736,9.580576074076493,-0.081055973852809,-4.633131150764488e-05,-0.03404346880488825,106.50755955737944,47.523717694532024,0.8054943202341713,0.8688698447548785,117,38.16287333692843,0.048202242045836785,-86.22135528247068,67.18743675973886,88.1325022230026
1033,Lunges,-0.44289334906153444,-2.6116039650939737,9.711080299481239,-0.016286288836854415,-0.02607110220423179,-0.09390894997659188,109.74164728011941,148.77704766755352,0.9717629266288601,1.0291192321807816,133,37.449098638835046,0.6722735172017217,-82.36998387506475,10.221096222315902,61.958478371096135
1032,Squats,0.025327587629843024,-0.005261988012810127,9.311312369848991,0.05846970368481291,-0.03198634648906821,0.030219628518341365,101.13761180295931,91.13691171422077,0.9945053517811147,0.895295508245358,68,36.27823915689267,0.986546765306784,-89.71302246598185,82.15146156430178,85.12842287849284
1047,Running,-0.1406481742840064,-1.4550059512635642,11.149126348168407,-0.009625811192127668,0.007355176323420912,-0.08140633809088037,95.56097496666679,103.98962748509429,0.8050213936824858,0.9094615287733149,90,36.53818193322418,0.9117963987583829,-82.74747674061351,150.17544749075537,60.35181948210113
1022,Lunges,-2.4276867505204134,1.47462405780885,10.747984119856984,0.019922193167834095,-0.04639968748342492,-0.03966471659256892,97.97131923200108,150.65379163215135,0.7781667897959347,1.278718781412389,125,36.698587925783904,0.717296077573428,-76.78210584006557,38.50459409483764,55.69576468505276
1061,Cycling,2.3190062214001905,-0.4630817299177614,9.664890732809162,0.021861554877352044,0.03807328824922181,0.02164222769251386,93.40260654767218,98.93421933298532,0.8640748878346663,0.8138124669678838,147,36.60257934475903,0.10529285825594503,-68.47126265070821,105.91238630940468,72.34734918919689
1087,Push-Ups,-1.1504298583236463,-1.4943480843337804,10.054258279740997,-0.07561377963705374,0.03523270434996711,-0.025033820074775733,105.23774557781505,75.96684897445141,0.756145657779679,0.8822872831378066,121,37.24380002613361,0.23944009340039418,-53.22891155269071,50.34108212163585,70.22505691712445
1036,Cycling,-1.1402239083868817,-0.09231491082007307,9.427911758547046,-0.0449687063577327,0.01757123874709927,0.007857593539547424,105.46948035645536,133.63016375605815,0.709787266421914,1.3910558438491676,78,38.36140092566787,0.18684901945328702,-68.38692531031779,24.178583069629553,95.38681263676929
1098,Squats,-0.2256297816927495,1.9060493776382867,6.956514707948225,0.0003232093598798612,-0.0009752264270432368,-0.06068476569748266,107.50241984764989,87.57052567177739,0.9837493513347608,1.3914398595127773,140,37.110431461919525,0.3554616402556453,-61.775858345426336,127.3158765694201,80.82880784403093
1043,Lunges,1.493322878043418,0.9462237737169285,9.820493012926026,-0.027867749182769415,0.03299091429724911,-0.017422968656895074,90.53205127193128,71.40102532829971,0.9777221897324258,1.030470435134504,166,37.653911420433516,0.2355172277915355,-75.69291634776903,190.87384823764657,73.31541622808467
1085,Lunges,-0.8869548226380464,0.3298757259089012,10.105614361251217,0.08522272751970789,0.03956927530389921,0.008169285247909403,101.23962683252759,124.0198296187195,0.7487961561286363,0.8615671058581104,172,37.72145801494706,0.2444394459716932,-59.9347682573093,69.03380155640426,41.80227716853159
1090,Lunges,-2.9282778321051666,-1.9891425885702845,8.187338241959774,-0.06141611975404451,0.02274588683708406,-0.04757362579678609,94.2851086868637,134.2087379596956,0.8223220740789158,1.2934792336650442,133,38.17895181313621,0.6167299353754057,-65.18125015794091,120.32270206839057,58.788020604885624
1034,Squats,-1.330497091094301,2.4324001496494825,10.299411069194603,-0.04546300516164251,-0.06559370115901189,0.08431817388709606,96.81766030984714,132.92310178595528,0.9493108939818057,1.0520921814417121,173,36.0845532189288,0.3187026559613835,-71.60823946900555,191.18463987265096,69.56407637790376
1064,Squats,0.6362106286184857,-0.9324407610538544,9.519423322055191,0.014527212973987298,-0.03941930569345034,-0.03187119564403637,105.69911230573015,157.09767383673199,0.8983000896462559,0.8318252390434482,114,37.01082514836885,0.6771628764724731,-82.24924820435096,133.59183649899063,75.5776979389774
1098,Cycling,3.2846254317137804,1.4006758693085144,10.137933720634663,-0.03139466688916447,-0.013403046074605622,0.06892083940079527,93.84067304722993,132.26670335374513,0.8184362527512141,0.910478886909859,87,37.961837785215245,0.9478896591461805,-77.85836368010804,137.8915274388913,59.981068876291175
1046,Walking,-1.8898799495597336,-0.4880443175271224,9.549601352629915,-0.14459162994751035,-0.07378954489248488,-0.008390277237323327,102.7668350116218,130.0913466733292,0.9232512991548457,0.8960503683748171,161,38.037167537413616,0.638477916613239,-65.1621565049698,43.996417196558816,36.98645148143959
1077,Cycling,-1.9447526512212434,1.256261808724859,11.050954474226849,0.09673406147069086,0.011200156666576502,-0.0784237783040677,103.09132382447197,141.47308298570863,0.9691142164630573,1.2123814406793636,171,38.31833153793503,0.7516566772103712,-72.95774702541708,103.59583898203707,44.99724195903442
1002,Push-Ups,-2.268893251258224,1.9603111438129108,10.026228820584087,-0.05371526931132436,0.07055026036618084,-0.05684504042978264,109.081878298046,30.024075388407564,0.9778474991577604,1.428682308522493,151,37.75698589954501,0.7515804152828379,-54.424537730037926,79.74572194657686,55.2072806495248
1000,Running,-2.4550874869490116,0.9722059048612999,10.802416458672008,0.028044636134090292,0.06258451833797962,0.008803964446568995,105.50321857057874,77.11608345441019,0.8136548835766567,1.3551504233264202,173,36.61288486526186,0.330702788399311,-80.60638913857659,99.4818019542957,43.23975590285474
1004,Lunges,1.8085371901221454,1.1337824396399092,10.884726142174946,-0.06266955856120775,0.03698130720024375,0.05163878762792119,106.07270294307386,125.88840248447487,0.7520682040218456,1.182561231512061,175,37.264164357710946,0.014957994593435497,-87.0770939098691,162.15704952395666,52.850634366213455
1089,Walking,2.2420328630465693,-0.14765847923344833,8.68044427391159,-0.04315174535414951,0.03638559669357774,0.08848885663126815,100.63201498035787,107.96347144433605,0.9738516574581926,1.0955086154492362,109,36.080863219797244,0.05504796299421444,-66.42605693978062,97.53280767175868,100.0
1013,Running,0.26663384037060356,-0.6509492131092163,9.060983129978853,-0.08114665013406192,0.11076477654816906,0.006410936429664733,93.73561614324741,53.084360342110294,0.7277666337583084,1.2330736963482054,124,37.617320852745614,0.28206025088455844,-54.55796639239696,21.941628868988666,68.04627198052546
1026,Walking,-0.7015691582112853,0.20744803467871537,10.251610682726257,-0.037059670013153995,0.04219319160891811,-0.05886218737472907,98.51126731436703,69.4853015815109,0.916506517368449,1.1106689186860565,62,37.38573802877189,0.689543183657598,-75.41043882240845,182.05291561866397,92.06146445016212
1008,Jump Rope,2.686715680293939,-0.5098717586538254,9.434462716241828,-0.03221409087242747,0.04628178433941735,0.013924254027237268,100.98979147023641,73.78303944067389,0.7421491944582405,0.9722693858034213,138,37.667090701903234,0.9066831386482925,-64.0915466052734,113.51501861587442,30.706199809495125
1078,Cycling,0.2608620624847571,3.700805566218738,9.561393230743706,-0.0066282838672448476,-0.07194573471680774,-0.04126073366800766,103.56838503427424,103.81765445240109,0.8168160564003076,1.2754382187465958,111,38.32535138346899,0.9587982621907463,-80.74349511291405,185.65392812075547,60.12439818573738
1014,Squats,1.6341550640406513,-1.4885374297357705,11.08656482217061,-0.018628442118822464,0.0666409397178134,0.0196095810597276,102.15418223663855,138.10777853733993,0.8234667239635082,1.4112707620189249,69,37.71819152930108,0.02584866384007345,-67.66112313309247,118.74735728524864,100.0
1089,Lunges,-0.7746734125827235,1.5031278248856137,9.489633621807931,-0.07207599134819141,0.01992486751527812,-0.047073727620277485,97.87955657834488,151.2239313710984,0.7476273745336249,1.0610092314766024,80,36.8011248259369,0.9900872456327712,-58.528315965493874,23.230900035261513,49.45820723075999
1041,Cycling,0.06636578133566064,0.7757952518085203,8.831070651751418,-0.026194991417196334,-0.003989217271633877,-0.10447851185849062,95.30626213991683,127.51201367097308,0.9768044302019836,1.3890769273839358,96,36.49684165967539,0.32249721835669376,-55.31873604893264,115.04518476989654,96.28885977831362
1076,Running,-1.8560124681705694,0.3448083121859067,8.966199998364406,0.07235053333874035,-0.01638190620341194,0.06584278298099493,93.36461686407367,139.58355072298528,0.7008004504027858,1.1017574325384434,74,38.136590517046635,0.8429562282351153,-85.79523480590413,119.39039717360932,62.58257781536509
1050,Jump Rope,0.9438734578403774,2.2198291498707605,11.982356501192701,0.06641952727059064,-0.02742977183346225,-0.011320836567263088,103.87690772544532,91.11247459869709,0.9681425629649891,1.0809351601695982,146,36.4858303581844,0.18029546069678037,-75.74501934827018,50.724577075165364,94.81395084541367
1062,Jump Rope,0.2864066261599736,0.44756617890176875,9.621780519614763,0.022784351445734506,0.06283884391804478,0.0024830166908290795,102.9079734862497,80.67079155089736,0.9651487970426457,0.8198270502829195,137,36.40402395148841,0.06289825760685919,-64.4142223225652,99.49552597983157,90.36196688837974
1095,Jump Rope,-1.3418448486206764,-0.9523603796136229,8.43575224478209,0.03315496233700866,-0.0014179464628687004,0.04983506871197608,103.74744931515613,81.0521091787482,0.7950890961094005,1.2866952309571873,138,36.51653020170244,0.3783554240626875,-88.61108527625392,97.29388725599375,50.81630772187724
1051,Running,-1.321660724289692,0.43759556588011184,8.030541404683406,0.1030411400567673,-0.0255839279435124,0.09394233546657273,97.45054905605589,110.08500868419442,0.9112852809637826,1.365251767579676,133,37.27210212032627,0.858925388530693,-62.37539199396692,128.34646831391467,60.21958823236183
1095,Running,2.423937755008115,-0.274767403357843,9.175363357325887,0.028562382979424872,-0.03857734023650574,0.036004032607447854,95.2481564514149,46.15077172225517,0.7758426733894946,1.2644898436909928,179,36.31046860789864,0.22082491587781605,-68.87864468784691,59.32667874804487,59.6242936391924
1003,Running,2.9575031256927247,0.7549270032249732,9.603477880572617,0.03220949302687754,0.008529939723142841,0.005150080810180563,105.1944265736185,105.33424376273396,0.9276320686761815,0.9059526659743605,68,38.34529582649176,0.15395732575184218,-78.45734883119894,120.53219941015682,100.0
1093,Running,-0.31970300500098187,1.219610447444248,10.749173706427673,-0.07822915130567713,-0.017980485210889144,0.023143643805662,105.47294790110668,116.46727182388432,0.868335922536323,0.8723054272868502,103,38.41563426810023,0.9098043289501905,-57.41382197623798,55.78088810101914,61.996147454313984
1022,Jump Rope,0.10163035914324392,-1.2886319135461042,10.652345166461767,-0.05563152806190694,-0.02938777762498275,-0.014739152164331871,99.11232747933681,87.05813622681104,0.7900676362742974,1.2010011261329776,98,38.434504633207496,0.938337202621459,-78.397971508169,94.82460171874226,53.42353109213416
1014,Jump Rope,0.6001717119723256,1.7930041770042235,9.793653578927165,-0.001634515850060157,-0.0691077984637735,0.0018057189244819708,102.23808169534648,153.91173298025177,0.8200704260912963,1.0810613779292213,64,36.097812012049296,0.012548199188908926,-50.343398151847865,33.314082874088335,100.0
1042,Walking,0.22204763723953075,-0.38234976730268866,9.345831413840411,-0.040372111253712366,0.04796786797522487,0.007243181892959201,97.47039328463482,109.06772540934477,0.906966619671521,1.1003684484399128,84,38.36549381620008,0.7274357374154816,-57.34519243546639,17.087104093680857,85.49890075696909
1028,Cycling,-2.511446580807945,0.6654208840232677,10.139601853421691,-0.04989776435115859,-0.006901163772488313,-0.03933126284015667,104.03894400239614,58.59993139076127,0.9718292348931349,1.4774601727201055,115,38.493537331543564,0.30920773652932665,-61.680779944676495,70.91158813842944,95.63747071107517
1035,Lunges,0.6418060157855792,0.9255452554810443,8.051253923863612,-0.04412295241161243,-0.054261932851201025,0.00105867934389384,106.71443193295742,92.29811346635711,0.7392179549701824,1.306745869835146,165,38.35607277336372,0.3747043699671896,-87.54609768149416,62.16863262345088,37.92503088778054
1012,Squats,-3.131833551900913,0.5510830359459454,11.781080893929218,-0.07117853210905638,-0.013561807066644166,0.01835509262519651,103.76466554671299,117.80257682758821,0.8714091909007471,1.0882514174454296,149,37.67734726440676,0.4691029749514899,-53.82758512050906,87.31782328595588,60.574244844673935
1031,Jump Rope,-1.0990262868864287,-0.16366277647885358,10.454105595856612,-0.03956922430410258,0.02745660279828087,0.025850844878777503,100.25165253694273,72.07178619546227,0.7761187598371352,0.8133694958892005,123,37.753075381021254,0.4267909701745195,-58.39778777049796,192.77669780006454,64.28026119764068
1070,Squats,0.7581407199372265,-0.732896372988996,10.666990219728273,0.01697177774054494,0.0014420435801655918,0.021866189121465734,99.17315918984741,40.35340881757301,0.9404116749626378,0.8238669884972892,131,36.30563234968362,0.5149737849821052,-80.83899682832791,109.2235660063624,68.78223201586685
1058,Cycling,0.8999913118872559,-0.40349176095501205,8.72584661812339,0.08981619632423425,0.009549687388530483,-0.06695126090371871,102.84639301951489,105.84663251241506,0.7210711917608443,1.2793625869520993,145,38.185742692687406,0.5823617157400163,-74.31007274692445,115.10357416598374,41.86583328524862
1085,Cycling,-1.215109626314235,2.347757898793316,11.082648641296597,0.03984910913568095,0.0021274128995154703,0.06146294712998284,103.59621783202661,153.2231219205584,0.9066867370513509,1.3864171316624347,111,36.14909896157193,0.4655955048379242,-79.25473793523429,188.9041973696011,79.45791174960246
1027,Squats,-0.6876554102803765,-1.2987996556935886,9.339982838973706,0.031807774251971774,-0.06384278882205406,0.05731406137269079,101.17458887049078,93.05935812321259,0.7524838041073089,1.2953918406847786,148,36.7943263665441,0.7015635404895175,-50.62335863275734,185.0179561424483,36.508879506092505
1065,Jump Rope,-0.8907547634976805,-1.0788650069444492,8.847441877181437,-0.0811766692199203,0.04742542716317654,-0.004807420410939449,102.4988455021479,147.79418048411492,0.8789156255209687,1.084121426823308,171,38.47787911287047,0.718601662842142,-55.83214220777762,177.98127124107938,38.7439207624202
1041,Squats,-0.154266244704105,-1.1447232347155714,9.76082762939378,0.005964835251100857,-0.08541230801909663,0.02277543475527171,91.93177364989064,138.5530664883202,0.9507077761578075,0.8217950165513987,135,37.055819697757485,0.4403591974261951,-52.7909878921959,28.619000985645478,78.54358582678634
1044,Walking,-0.040191519953495305,0.20363081987649762,9.737444914011627,-0.003347995164856985,0.02307682873057211,-0.010827688355425412,109.03531032284653,49.16366187241783,0.9265241986365038,1.4771811411646607,68,36.32789055991314,0.14246314808710858,-58.449030544982804,130.51650799886278,100.0
1061,Push-Ups,1.0027021942936658,-2.2870581749817087,8.721462927488004,0.01453705484755894,0.030778546074772248,0.03759788314057332,105.81546127464068,122.0620898386242,0.9258828663050912,1.4904352435106607,69,38.4232366551227,0.6406389213201227,-71.74607035719009,163.53880629376724,98.30829985527798
1056,Jump Rope,-0.7753452943346753,-2.03033978420159,8.905062646458635,-0.01803437347387296,-0.010992185188959128,-0.04071359230666848,97.47855739413568,86.6105182593572,0.8553535936560716,1.184555186010988,171,38.46034911760434,0.772956712350709,-81.78263000741259,168.75919101964803,34.803427282555056
1005,Jump Rope,0.5600942878703328,-0.39143224943888705,8.82676822467195,0.08310383705073343,0.017671126190277844,0.06712302976454625,101.25625221907259,62.53202228418179,0.9672236775549163,0.8494696752865739,69,36.467606713096785,0.6381095212039497,-81.67679372361064,119.80235707536026,100.0
1027,Lunges,0.7605236467307872,-1.9316631679473566,8.836284932143176,0.0026387758148911315,-0.013856773462011036,0.03511038059089785,90.94649060272843,119.3019862366714,0.8764315594725993,1.1786807541401267,132,38.16200952185043,0.5880547658468156,-83.93268606533292,13.32415402237213,63.764721817464014
1027,Running,0.297434066057798,-1.8094069639242025,9.4119020929004,0.007511167746843625,0.01827476015455574,0.03627168957844454,90.82455627998121,126.54589342533478,0.9752553905648711,1.4246369291545657,121,36.97605831548473,0.22941199123460632,-68.13401798786413,195.00545131192968,98.5816829099826
1043,Push-Ups,-0.38940873367421175,-1.9204026140444088,8.411014863827543,-0.09812201124234253,0.049646127175945236,-0.0052526438212908665,95.01596670223925,53.38652143552905,0.8639567373497252,1.2759898570897494,149,36.95342116121679,0.6451370408192583,-53.2013390854543,99.71737352404307,47.531821178494496
1083,Cycling,0.2709681964131606,-1.2699175636999933,9.108625502586065,-0.005333784097216054,-0.03960632131926682,-0.07063092524663465,103.79403284729247,148.87780866730708,0.8517896689060008,1.303992461722907,158,36.65674407974225,0.33485621457621195,-50.32807719816935,84.78322010198366,72.32075491699607
1029,Jump Rope,1.1276104100903643,1.0968697600056094,10.84513454838427,0.05746296750153173,0.03369824294761515,0.04419673500603849,107.04295495600023,127.64914171368733,0.7667059057630943,0.8594788862025745,150,36.11177568638724,0.919558862813285,-78.50800799852941,85.04025559867998,25.372088953444713
1061,Squats,1.2587773015744683,1.4335619341816237,10.623309452104184,0.027778780407051774,0.08461990011940557,-0.06897806674512752,101.18371759959697,151.33881488845594,0.8634359962090614,0.8745581459222611,119,36.67002245921306,0.6537200927599808,-62.107418388130824,90.58866721107064,69.76351893125863
1074,Push-Ups,2.723059027240359,2.878501339827909,8.750120759107245,-0.10777954698715542,0.013228263126718029,0.044798633011227273,100.64265479164705,71.21951843927982,0.7421754493746691,0.8891441434631198,154,36.13444226333263,0.2781796767083027,-66.11607937558489,56.014336452823066,50.87476470274832
1091,Lunges,-1.4850393544593925,2.8235427877702177,10.758204917294234,-0.022483753657311215,-0.025155211221070607,-0.03860636084161117,98.04619067582932,152.11355204658827,0.9609070603778636,1.433063783562695,78,38.31093011589991,0.4729269093639301,-70.44255532494756,72.19338889246767,100.0
1088,Cycling,-0.6600110864931038,1.1794690648206703,7.833560730863952,0.08659497336815017,0.11316164195427679,-0.0793524327015302,93.23195911916042,77.90729551898951,0.902767566612488,1.1680947453846693,166,37.654301680981824,0.8465812758850444,-63.36925424751834,197.21794585720045,36.63481424644792
1061,Running,-2.4202029904026032,1.5415165122015475,12.229144322012154,-0.007532036014076223,0.0044353119522378675,4.998518567653307e-05,92.36708202653175,37.01606898556093,0.9980906345478826,1.3541025674750937,97,38.21655662504098,0.3354639511826475,-75.14547924079724,79.9519200486579,100.0
1096,Running,1.3965141964917827,0.19665313602887718,11.100313192135593,0.016120799135556366,0.011576495190143872,0.05914002752692034,105.21359522441932,129.18602053217302,0.7276292283371569,0.8807038819185202,65,37.793226703676424,0.5254405701523811,-52.220608996262015,110.07775313001991,79.75088003533877
1000,Lunges,-0.5017612595351202,0.7797972780184036,9.240268087859894,0.08095046436436508,0.012618710476680334,-0.04828018742093434,108.55007102593152,121.4560587314843,0.772201824953586,1.4493498938560165,74,36.3282171777066,0.6796699732515226,-61.78204529174652,171.1759105352915,78.18389607231614
1026,Lunges,0.3092864730439898,2.9154045722747552,10.182426561735111,-0.007730707077345302,0.02239316637996405,0.07995173121974132,99.16566432772547,107.72842899423321,0.9631475812798418,1.374799464048047,152,38.35145384183824,0.7545293388267417,-59.83195632030221,110.21128411068406,50.173917882060614
1061,Squats,-0.9065078541699596,0.5568193020852454,8.399080671890871,0.03955149299789516,-0.016943747272449274,0.032837027191533745,103.18891317431276,93.68618676994262,0.8185762299306752,0.9573349013427493,106,38.249732634081916,0.17389217506474486,-80.30311619975704,71.64615010745185,94.26030171569248
1076,Jump Rope,-0.490055992466738,1.7298578678178596,9.860442789925814,0.02056979385791806,0.009499543035208554,0.007837976118293824,108.28915301761882,34.18148514194208,0.8398908969945693,1.4119275633057673,104,36.87019019475259,0.565152304677289,-83.25671986009522,109.51268561452072,69.34032986730047
1002,Running,1.8347851581399874,-1.4015274128677666,9.616336967497533,0.031257443175519616,0.0476091871718385,-0.021781212811955625,91.8022726586829,111.19764269762007,0.9581955662162851,0.9844099315777666,177,36.27883335087919,0.9121999004962014,-74.22636827622708,31.676398983428516,33.239060505731196
1069,Cycling,1.041350115728975,-0.9993580863873412,8.965236610607604,0.018960782841673504,-0.018670051061737792,-0.018294867589740523,105.40962906238059,84.18849997896316,0.8565469674849857,0.9437379155373395,64,37.760386876972184,0.9683597815096939,-59.33310058655384,34.70132149422627,75.09516922651018
1071,Push-Ups,-0.1672830864884185,0.46810439669245135,9.331442513674142,-0.027381493925739322,-0.020999698856334778,0.021508361437544504,102.3363376875115,102.82722235632285,0.7580427548243104,0.9849707557685488,137,37.82090325684181,0.6561450425593582,-52.4481636098857,141.8804311238271,53.77155261386145
1026,Cycling,1.1517208792145954,0.2248975050950866,9.233012524190574,-0.022389877571133483,-0.014604223773432585,0.04230204292595306,101.97274357659722,85.81177445579272,0.9676090346229342,1.4369685442908264,112,38.242072612101765,0.9836608041599857,-72.90680696103969,184.31752487935168,67.1667999284696
1008,Walking,1.1848501200568111,-0.9299012811073442,8.668263280682366,-0.042728809018416254,-0.05488864089920913,-0.029674810882604416,95.8508085696314,155.58729725947586,0.70931849692691,1.4409143898604087,125,36.1316393986277,0.5707352489761408,-59.03372830011336,147.87884536281848,56.75757392997123
1061,Walking,-0.5871382750301029,3.6110663758968284,8.941852754103337,-0.08198545594351446,-0.034141973092578395,-0.0403256663642384,103.67786709555354,108.53415714961012,0.968618880293033,1.0302970422815783,121,36.35425959506843,0.4426050297809333,-71.18369522132761,24.176515724897868,80.37386099021357
1036,Lunges,-2.2036193409543126,0.2588911558722993,8.358155574000289,0.06222649553383215,-0.03617899618200478,-0.010691340921093353,105.89595509641553,127.40072297832073,0.7151560680017004,1.2938039295661858,82,37.49562198219795,0.5515874589482459,-78.19087001778145,86.55016609589109,71.01941885609695
1096,Squats,-1.3487424405030588,-0.6640875782769928,10.65733076556062,0.0005041483440604926,-2.6126183401405618e-05,0.06968143379286722,92.25716329887395,151.72510317124082,0.8997548093800384,1.2730216786149282,103,37.547828877175206,0.11571239426352209,-60.429393970966096,10.48518177093211,100.0
1050,Walking,-2.0107929050737754,0.22742824104094533,8.867887253543731,0.05970800912622287,0.04180728278528836,-0.060844417016823374,100.67042861961967,106.90791197917616,0.7215038139026003,1.3645938424912822,111,36.08402415578752,0.4017159196853878,-58.07191464074691,107.12928123187025,72.28737916292174
1043,Running,1.7466519689893607,0.03814005391745216,8.577979128429847,0.07826863372923248,0.0726857048439736,0.057123882237138594,92.0253036197482,31.568127316912097,0.9118638957895197,1.0075566500994917,105,36.99233012765415,0.4584050530305287,-81.8863682367728,46.708852127551765,87.64651839746543
1023,Cycling,2.0071728246715215,0.28170382183663256,10.641504679815998,0.002670874045477204,0.0028594308595932317,0.002113991579656627,107.45148038595289,34.457918180370505,0.7101913963998853,1.1570969793372814,78,37.46040432819012,0.8486277987209782,-77.79321991818678,174.94786325844476,55.84186183125837
1078,Cycling,2.3795608202385248,-2.3905755230265493,10.169620354339331,-0.06567445658453124,0.022823487571435392,-0.08263695715793073,100.15273445312695,121.30399643324203,0.9527373183132363,1.2673717657058008,147,37.844778332879336,0.7586485927424472,-70.2089262610535,29.823660045125656,50.30676311720603
1058,Lunges,-3.029333323465753,1.9379200448502982,10.60450105594896,-0.009809407292623303,0.012169690295384767,-0.023081620078284112,106.15931378521515,66.28106769966686,0.8397831852789954,0.8183797731669342,143,36.790376729445825,0.6014265852248007,-82.53912680932493,10.272345742935777,58.36934698235916
1031,Jump Rope,1.6071013655605821,2.023244130658725,10.716083224196655,-0.03355718033815607,-0.10467194776033294,0.030483403647013643,97.36171275332428,105.31936455523334,0.7280361738006633,1.0637171217316683,106,37.209758732554604,0.34727723487626994,-52.8466280498483,95.71774819161448,74.48145590474938
1095,Jump Rope,3.3182869640770276,2.2054811580547287,11.737454896938425,-0.09900752295274938,-0.057394545593013706,0.09009069725203807,92.50156453632651,56.29603354178696,0.9120458335030431,1.2871218503749984,150,38.035137180780026,0.18703458569265707,-66.34664349757006,39.53232774589044,77.1151608404454
1087,Push-Ups,1.6679815707159673,0.48814763780444653,9.643960233306816,-0.025086445246443913,0.03806321455823698,-0.06636863616907838,90.82998608771423,65.13235375802284,0.8467870472511287,0.9768165651833934,111,38.38473765974435,0.3477650209146279,-85.15186890513229,150.2174126322807,81.63851762508585
1051,Lunges,-3.2268444268060046,0.9937215902467735,8.342392321004493,-0.0035768606032256494,0.04292425859597896,-0.1409588238027629,95.63019241544751,95.60333727324979,0.7572846576626329,1.4703928749045412,83,36.575786688474615,0.6798040709591319,-82.63880541270152,184.78759903846503,74.71524052174549
1061,Push-Ups,2.6524474625951577,-1.2993404220108749,10.071037800762126,-0.032166219788232746,0.04178040125599852,-0.06547764077289683,94.88467400728157,156.82403023629067,0.7047017121666177,0.8211129600547873,76,36.63260551454974,0.2630377990850331,-51.82578618700622,17.968222717487762,84.04640523703847
1057,Jump Rope,0.06253355569791211,1.2493489928960844,9.130995377120183,-0.038577254347574357,-0.008890599223169442,0.0565207753933253,101.20703948039923,110.11516359719491,0.8253994779176611,1.470661031311196,148,38.34954546858469,0.42688669570916593,-60.47325657213527,85.16060126405837,57.454918363127106
1051,Lunges,-0.34859865975070736,0.37768156034090855,8.84249471668446,-0.06387679110664773,-0.09974172303004875,-0.08968708535342101,90.43477676127415,151.69925358669303,0.7256887692185606,0.9517347076072801,105,36.98977787690671,0.38677023488168205,-60.62379661980056,199.39484545348046,71.28847130698927
1011,Lunges,0.6766429448744674,-0.6906099234588634,9.899925172217241,0.009796107417713869,-0.051426249283958614,0.07486269454396936,100.41141088598347,154.71938107030317,0.7282509094741711,0.834175429347759,123,37.79587081130185,0.7655900637910602,-87.10005623979782,149.20767430012702,36.81603701411249
1038,Lunges,-1.5735103838557296,1.2971170374612606,10.66575273300959,0.09346346416081205,-0.0437753922823581,0.060740447388096024,97.83543484024007,57.054299534665965,0.780198864508803,1.0047318232564904,178,37.53066307182469,0.8837870622601444,-54.18804649164212,191.10565230410336,13.793526292933773
1001,Jump Rope,0.0041735563823684175,1.3551735541366503,8.964005158403717,0.06393119440255739,0.031438428954535594,0.0095518121031379,101.54244539828885,70.45516832096277,0.8891374891727273,1.3503976151031578,154,36.71396919948514,0.6993709568109769,-72.25058549765582,41.17582419106955,58.37782312629677
1002,Push-Ups,2.4306444676561103,0.09091325351239951,11.07438808733172,0.03268134439934826,-0.017868554820829798,-0.0313182655173514,104.04835056300729,130.09899655843154,0.8589731825682847,1.3267094045136372,87,37.633905554895065,0.34160226093303414,-63.61130709440295,52.060026303471176,91.14216652439723
1055,Push-Ups,0.9335953057849321,0.6575738701926046,8.810386040997185,0.03377045594655206,0.08452002540652091,0.0027630312908571465,102.68183890159678,142.6793202978747,0.7206961924776042,0.9461882914959545,109,37.63891475239243,0.43317704897588727,-51.612431235439445,39.41413571339693,66.54096659764514
1080,Lunges,0.0876022081540021,-1.547575517900341,9.556096778674538,-0.0066321572129562495,0.0733819168930379,0.03055436760700509,109.69288738746732,97.49947674463861,0.9905293827677409,0.9377530935142596,123,37.48110796352269,0.14335015405372142,-85.99950478573773,67.45011641742826,89.99978779844001
1058,Walking,0.1344122398914131,1.8647751558215373,10.186307881780868,-0.09022565896435203,0.08368492231104316,0.022923823236264938,92.76530687753743,159.1193887464714,0.9661506064883774,1.2498059410631785,87,36.249152062123784,0.16809744776660984,-70.70894162053685,147.63297298251985,100.0
1001,Squats,-1.7720909749482021,-1.3482197820523525,9.412100791315943,-0.018471584473034968,-0.0458256496821611,0.08698296866350526,98.59474017859557,31.504385838185136,0.7777676461435474,1.1206578827730114,145,38.4879295559351,0.164292567526515,-88.01549053352272,41.339865544055755,61.690263523955586
1001,Jump Rope,-0.2249818370995882,-1.0581384721187637,8.023997661061465,-0.04846388436660752,0.02454456060707857,-0.013005122491324845,98.49661473286622,68.94704522607803,0.7367015727886423,1.3546029673316315,115,37.001041152927066,0.1305863575613102,-70.01818306705138,109.60446719782482,77.88173541772811
1091,Squats,-2.451443003444651,0.09347346814580532,10.727407491788806,0.0077348374672661716,-0.023876204446893482,-0.0650421486811499,98.34106407405841,111.01102798679538,0.9827208594270971,0.8168929450847876,118,37.59562746349247,0.17958122850913016,-79.90962358049715,61.14988463173563,100.0
1053,Squats,1.5336614285907157,1.6717744263276892,9.176535659643974,0.06166073519693774,0.01639359091166452,-0.07386403535660625,103.27596784085337,91.00768842187277,0.8383425333642099,1.2272883025323997,64,38.21440423528155,0.20268820257835762,-53.55737882904518,167.54719803601392,100.0
1086,Push-Ups,-3.278565723713014,1.6709229498234914,10.544898449393694,0.09867047951242303,-0.040280687137198005,-0.08386456340295753,99.79656121093444,45.1583856357441,0.7933500894314307,1.3114704085679132,113,37.05822122104959,0.11184594379763291,-74.06030022907652,11.252557014398413,88.44788486397204
1095,Push-Ups,1.282350569431065,-0.007236932857695372,8.535855864972339,0.0032310515590266067,0.06130781837757278,0.00981394612678029,100.34865119625925,77.81232111247327,0.8471074105495562,1.4953702784200682,103,37.934812642013874,0.640260721884227,-64.64510215791684,52.391842122346695,67.29883681562931
1096,Walking,1.4691163512510925,1.159520043380717,8.706563417903588,-0.08335781685886778,-0.03934657751019429,-0.011718435036122854,98.6471198429353,33.30812862835508,0.9318232433639236,1.2751471859657928,101,38.429561061698514,0.9904015345821996,-55.588509407418044,124.99574393871458,56.48498080524233
1000,Squats,1.9781469235907911,-2.533587673993344,10.662433409555359,0.0031338025080989104,-0.09736195123355489,0.0016327301447135877,109.83398922037125,113.55698598978633,0.7505155894909163,0.9622916095849765,131,36.897336900632624,0.8791867446522561,-50.652325663312936,28.37499537503009,40.50574195695636
1018,Squats,0.13028874474270422,-1.0789799851943291,10.140508092742024,0.00449280814566911,0.10168904078715808,-0.026852977040309152,108.55122697638085,146.05653058952618,0.9302487500527922,0.8757303364160272,161,37.01317392558184,0.04560272382608621,-69.84722518685817,98.59932102973802,75.43769724656588
1001,Lunges,1.3749426992362936,-1.0484256591954018,9.361414289315324,0.033942193526309936,0.022124833978396517,-0.05550834293613386,96.15448378728742,145.03363609184964,0.9248340363801596,1.248641742250853,151,38.263940147491425,0.4230588091967248,-71.76969188554176,92.87938633165024,63.711270149273965
1052,Push-Ups,-0.23961996054782425,1.8783193646397263,10.155031598170838,-0.0009597775200415348,-0.053456338220906396,0.03071679423137262,92.23187849533335,120.94078158952105,0.861804461452264,1.1662281472627511,116,36.399107169537956,0.8593105792327723,-86.97041418814165,171.9793712961351,52.36122916587592
1043,Squats,-1.7800456765319002,0.9819812443620115,8.845960864455643,0.0033259136980339833,-0.008113555753456852,-0.12315319499231259,106.79529448077206,90.55012541473059,0.9597526866248745,1.4294017019115115,106,36.071487095898604,0.13467481799199643,-89.4904422665114,128.82546670169452,100.0
1089,Cycling,2.2960985888069922,0.2769791638569011,9.91025911748891,-0.031603037894352946,-0.028842854735844217,-0.04007977838768682,109.94340502851449,96.56411042989366,0.7396430134509582,1.3086256148268927,135,38.27222251212278,0.8476451466520427,-65.64791630006016,131.54339181022948,34.24355556657589
1031,Walking,-0.145328744422612,0.422602595744061,9.928553923390066,-0.01559509915544394,0.0002870723402219882,0.039324507998419564,95.85217788079291,47.79944711943618,0.8786437019997019,1.1568197150298345,84,38.05397893529395,0.5927006378378993,-87.38142591409417,190.84344433994153,85.40317891231699
1069,Cycling,-2.1142669762097914,2.3525089140451865,9.426218394808972,0.02566162134075914,0.04013904179574104,-0.045041921335151835,97.15569851683533,74.33222210549638,0.8348029157505464,1.0825126295356033,161,38.43145758137833,0.9312985525961118,-74.78484251846106,196.64847131144126,22.871682169733578
1031,Cycling,-0.700222418684673,-0.25526949975982743,8.964714294409243,-0.10042418580717503,0.032288954645181535,0.019583770989924844,108.83266362970406,54.404649814775574,0.8266876338507495,1.0830622896995743,103,36.1455944567767,0.8760391142644252,-89.85574255574154,134.14499910903933,56.04029434759843
1067,Jump Rope,-0.6409870238522569,-1.9711009628010596,9.870248578214794,-0.015864428283191245,0.012686451025425698,-0.04001295477682324,104.2225903600618,136.7560264354941,0.7757683213808576,0.9584130003058642,74,36.39044332610247,0.6770343220587175,-65.39090004137317,109.1802755288903,78.19432426606905
1054,Jump Rope,0.692545377186318,1.6307927765929566,9.745018856699103,0.03439499839979551,0.00026265566547544215,-0.022792243691514363,95.91276663559272,148.91800717393477,0.8116838970429724,0.812128180228988,167,36.26328139772452,0.6578226598726955,-72.98339358238016,125.50481110832717,35.36672118266463
1074,Walking,3.5205712250590966,0.2727585558075911,9.334177921080391,0.08203644705027668,0.05393353787640053,0.028746025790239906,101.6209298256783,99.80002398461521,0.7324452268070997,1.2024374117449743,164,37.70854033073427,0.21316420239190814,-84.91916920854848,82.66430396029047,56.19515797453383
1055,Cycling,0.7836279199238474,1.4305075172486714,8.76618552981925,-0.019916822206511843,-0.09627291091684469,-0.06389241585315664,108.88459158728512,124.60932526668273,0.7754796909294476,0.9486903127662507,110,37.51502518436786,0.11675296715800854,-78.14529572636712,197.6167572224147,90.52537403463378
1016,Squats,0.31026577799478794,-0.06714721107976153,9.812477049335468,0.059268489041189365,-0.0374466346630219,0.037263916503817295,106.23626213891558,45.790420217926574,0.7815895323334248,0.9458288424096291,112,36.89833799846815,0.41539342996879836,-67.21357204112302,143.95403930440318,76.92160700672807
1037,Push-Ups,3.6836642993438327,-1.2580342855558397,9.336677635163396,0.08450119227089717,-0.048933141662808384,0.002296024622388325,104.83665427457319,109.10950362604099,0.9162003602380419,0.8877668600735364,93,36.143558698505615,0.18658003949312474,-63.73146527960092,65.29129093204128,100.0
1023,Walking,1.4683403098690881,0.604232581624465,8.765342379563068,-0.0192691200531339,0.05031288865014458,0.06282194336895151,104.73992623454045,121.36283277911998,0.7145651281626589,0.932716843123685,168,37.59915496011635,0.10241671767775895,-71.50656481346212,20.975596804692998,53.2711048080384
1068,Lunges,0.3813738062023928,0.015262606112145666,9.843529810758112,-0.027910426641590987,-0.03695463078392356,0.010407498582336978,93.5604064858454,88.8598568364821,0.8953576924452582,0.8222524046885964,136,37.425301212787645,0.3023267332728935,-57.84163535636217,18.497166538873884,80.68753967678386
1097,Cycling,-0.7191177882271425,0.27741342431161387,11.408305472055387,-0.009103723504596324,-0.06429776961452242,-0.053474331023967384,106.49362478455873,61.625500981190825,0.7664229729379569,1.2719620148239725,67,36.28225802765154,0.8604899427966485,-85.50238353188057,48.93346630004244,71.79625954643191
1069,Walking,0.47430011430684127,2.424855741176124,9.433172334092923,-0.004097589253154773,0.02746637730584664,0.0863997210970618,95.52237264886917,144.0586876703809,0.7245584517748881,1.080977981418886,136,38.272274261184286,0.017148154018361228,-86.61817109550368,54.253480308091206,80.2322505543448
1085,Running,-0.09958560613970481,-1.6480537160770508,11.297776541242023,0.05454113339277598,-0.04543737904548627,-0.049297147240107884,108.6073331580306,126.57813359398392,0.7902418483256302,1.1930672191412015,159,36.497374274179975,0.29263768172217564,-88.23022923928767,88.85864385124104,46.11801694952536
1010,Running,0.13715119133849454,0.4288779907139738,11.914331714730096,-0.03868625897547979,-0.01753632412541788,-0.011357804206697117,97.29279982027566,146.98144664039535,0.7673418608285808,1.2458703326145597,129,37.85877288035964,0.4240521852144923,-68.5668864220223,50.82074221088823,59.45377037212351
1015,Jump Rope,1.9716036371542092,-1.2284950352380153,8.846581097622325,0.07690327180527347,0.11905719504408491,0.04787044634808866,107.15320794084514,136.39234417471704,0.865609712751955,1.4807391935933114,161,38.21268965635737,0.5105697496152866,-61.75073183062168,129.87298186373147,52.58285278600936
1096,Push-Ups,-0.8104832747062323,-3.885818959680087,9.809044208198966,-0.040037877636310906,0.03935692770017367,-0.09399638873418192,95.32466989035603,158.74867584525214,0.8072129210343887,0.8477861060988507,155,37.44868747673427,0.18157750838298925,-84.77914402309881,50.13839885401054,66.99222084722784
1072,Squats,0.7703110622452706,-0.0734477835333357,11.90373191781631,-0.06322124598087818,-0.010552030370733732,0.07198344900569366,100.2905387316448,54.98245531787836,0.9897981227224979,1.0925423793820066,80,36.617122263245626,0.9642201998380311,-64.4421751257843,45.69654239881773,80.68060898129264
1058,Push-Ups,1.423409984756391,0.04653440549971055,9.678920038590956,0.026188860577933938,-0.006056406297209167,-0.05754421461631568,92.13770590978122,41.27720981451663,0.9890648798172552,0.9721285534685368,167,36.773121294062854,0.5788730435721895,-70.92208935241861,99.53502863207028,48.1503342832798
1069,Push-Ups,-0.9931687752366143,0.9352831544261381,9.8368121457654,0.06152802144346031,0.0453743793110736,-0.022749970991878615,103.20237805992348,73.81036287384362,0.8331145807360718,1.13369835229977,167,38.21436883429708,0.5221105470570441,-50.50621999395539,178.84703387152558,42.81814266942349
1079,Push-Ups,-1.2339321232336515,-0.32631112287591546,8.12999452562511,0.008932774050645643,0.03314352150523153,0.014442895209883788,106.72158550333677,46.770542753023655,0.9385262381980779,1.4443306104297218,172,36.74564289094121,0.008822588930341158,-61.30105562934354,98.9780426019405,81.49251804857327
1092,Push-Ups,-0.22551288387135535,-2.233500532685958,9.268338099680333,0.021754219898313686,0.0037799744725468543,-0.002085292804270042,104.36894562604832,98.00691467780916,0.7039805622582624,1.3067889856737058,66,37.86547620829326,0.48571537939600706,-63.70106659233497,88.63126146871174,81.53403106491152
1002,Lunges,-0.6924443853846913,-1.2336473658822944,10.355588684668938,0.09771486190126559,0.00517799711197122,0.03945880292252268,100.46517025877314,112.29375770300652,0.8643434754174408,1.2633647105359254,149,38.475413030638514,0.8376706294551841,-67.18201060510623,119.83803241734468,40.51332415705335
1019,Lunges,1.7284989131122561,1.9754382550300558,12.229282642951251,0.062232639076765045,-0.0739924240218986,-0.08004037854855253,90.90231757202919,105.17751997254248,0.9229897516920937,1.1088721135018242,138,38.499541798406696,0.2196445430512427,-50.105352738011845,58.87059896280941,91.89949439351591
1058,Jump Rope,-1.502652417846982,-1.2549418939359467,9.60399316652831,0.0015462708891249627,-0.08450052750344683,0.036372567688635865,108.66882014341716,63.70121760073512,0.7650829676222007,1.269778748862105,115,37.33369937067333,0.351207568386413,-50.781633165816906,77.15294535318255,70.51353161057494
1035,Walking,0.10270705279300507,2.3748382945387596,8.137373677748645,-0.021557344159096888,-0.008841113788675225,0.0403621193886765,104.10979097157269,148.14712402594358,0.7183515265497831,0.8226627640920857,108,38.066389491965246,0.02057146468769555,-68.47539498021914,50.62869857675481,86.0196691661985
1018,Running,3.8190725001067127,1.5749764388570746,8.394750809226691,0.0547529433240693,-0.031664259267307225,0.05146129146229464,104.91728476730665,32.7524072855992,0.7467756807719367,1.2103670704209262,101,38.475624669803,0.9769275142337952,-71.79266610662953,118.64389897545989,46.30205675625932
1089,Push-Ups,0.6195848006792738,-0.4766709065041045,9.764210314061703,0.04146419567129434,0.02930395171701818,-0.07948303859832052,105.89361151021615,75.24173598925408,0.8325544261521571,1.1876435938194738,82,36.93668222460496,0.06665179712804081,-71.5154030919299,142.5036366981509,100.0
1066,Jump Rope,0.8689352164573279,-1.0936187446540484,10.977206798052249,0.020928834133004143,0.009858987190281302,-0.07344676169145112,104.95486851855222,123.46902180174793,0.8519114262268785,1.042648302374235,111,36.63102396267576,0.8982211239095694,-72.86630438706538,138.00274178820865,55.45317647890284
1018,Walking,1.7410237435456877,1.5718694536958675,10.437353682875397,-0.01635068429967441,-0.03863871967471899,-0.01711878248292558,98.82232328196667,129.70076042539074,0.8142655366326306,0.9410598877968759,161,36.285583389605456,0.3129877141804547,-68.74406772014711,58.41538541330473,57.24317186293053
1019,Running,-0.6944235981380391,-0.3613668676404298,10.260255863510126,-0.003819481813341668,0.008159922974817877,-0.06804128906513505,104.67243658575893,84.09541077614179,0.831992130112714,1.3652888856995107,164,36.35224909518281,0.5875564019858786,-79.05662928742517,158.13315909211374,35.87106568705749
1095,Cycling,-1.622129443118106,-2.3184752095499377,11.109144386917597,-0.0073759782309028065,-0.020911639277746148,-0.09019839497072518,102.50053575620657,32.198275723327725,0.8410704878827844,0.8377034801185675,138,38.13389090905166,0.6793155399660034,-52.928448675422935,58.63119639748675,50.5352477202409
1070,Squats,0.2647669142441172,0.8434749309348872,9.079770912481049,-0.015518439179064751,0.10333006890070147,-0.01927320286105828,107.08032667337574,110.34567828608586,0.9308309984803289,0.8487710050965115,171,37.47180772576768,0.1408291674311145,-70.39079674152259,38.559194740874965,64.39975082989538
1051,Lunges,0.39810574252280595,0.6258951717872792,9.819094719957565,-0.030057406829799134,0.01931211494814786,0.01170456807288823,106.0491963067474,38.20230855381804,0.7315725694232956,1.1083652207889025,112,38.184272938481215,0.4437593777803355,-56.31968752645563,76.46366225056693,65.24912348380373
1032,Cycling,-2.4273161920697417,1.706559304072167,9.279617879797605,0.013259931797415093,-0.07803034935164643,0.13994897651473298,90.8274876493452,44.02125089995688,0.9306851401478188,0.9767881831860236,163,37.97363772258042,0.32546610024664235,-70.9878530132952,123.57137694246777,68.31808827406333
1039,Running,0.5626078720241666,0.5243924990404456,9.528544264547927,-0.0323157647884672,0.09102575501097909,0.02743375770228452,97.5777418066521,114.53259355400469,0.9065881906884994,1.3218166894549142,75,37.68436157512004,0.056602465605465335,-61.26838904359028,36.98034557283562,100.0
1038,Cycling,1.6047757480515585,-0.823720465568576,8.793730645674515,0.00886895854572339,-0.0316574501978625,0.08761349999499095,90.6943230436779,70.62348239857113,0.9224982428428954,1.2439330538448337,155,37.52328047976715,0.8331936543931807,-76.5247214209368,133.1365513006067,38.35594833935908
1081,Squats,-1.369422109536014,1.9045182594032009,9.456023928566205,-0.10499366161095235,-0.04873684953900846,-0.002207554318678851,92.04149849532196,75.24391985207288,0.9203405157625968,1.340774357288642,96,36.12084726044523,0.04516775649747773,-65.00772569066959,173.9829192881633,100.0
1000,Jump Rope,0.6533337725622199,2.050485649018265,9.772284433754601,-0.029993708430040785,0.10718433262717604,0.02797829964336468,102.02821444007222,93.28492000782165,0.8411775447405351,1.0272752694364609,77,38.18068799000798,0.6532579594838668,-70.06514218196322,65.6966969490334,91.9599020479604
1010,Running,1.338395490555201,0.34980894597781115,9.42852850013845,0.0549164600347024,0.017291832889778185,-0.007306884776638731,107.47643642324508,157.21519133171861,0.76342005536827,1.318363257732507,79,37.04460515419929,0.314077376419847,-75.31542973865561,95.5392570618727,98.38662165190146
1091,Cycling,0.8800173127951207,0.09048287179945834,9.6389384969862,-0.04502146127322448,0.03503830036027426,0.13415616083584445,92.39649517418535,155.50748869603234,0.8609886712905412,1.4036122652184793,105,37.39946714267848,0.1921293272018666,-54.73774955727996,53.37898086878384,91.28132125169836
1056,Lunges,1.0215093581123356,-1.9849065346576575,10.205040543437187,0.029605098052157153,0.03665300579360753,-0.034279543176452903,99.02178574933663,84.11392991680977,0.9873946160827298,1.0416921460930002,61,36.054883754692554,0.6670860513355453,-85.49153269004364,78.63972852337503,100.0
1088,Lunges,-0.3672003627094518,-0.9112895135197143,11.0386957690644,-0.040864187501653854,-0.010299485811890177,-0.02749871500665954,108.21757809612888,64.51489823837667,0.8765577044180091,1.0379270748132834,178,38.34018375465697,0.5745377145262058,-70.52307406723558,14.17440845247641,39.384979048711706
1049,Walking,-1.691256506610894,1.1411544629390304,11.111155868112599,0.03878928283966101,-0.028620263509316013,0.039827034382810204,106.28601967343175,69.33697984633505,0.7033141435638333,1.4299659827344984,146,38.25685115273,0.3152562573748299,-82.22523706935453,191.21618528043714,57.766993550044674
1022,Cycling,-0.6707196935758696,-0.8359204505440511,10.561421767396993,-0.014855447359927061,-0.02046287274688701,0.010373645181966302,100.3933579293186,64.94156876100854,0.7179132714629172,0.8348531772313964,153,37.35819507479526,0.5129607482592392,-55.55779635129634,89.01914051031707,30.88849670743473
1030,Push-Ups,-0.8790856528059372,-2.185256804089984,8.540018521561684,-0.016832330218264288,0.08044331396220168,-0.021208100173855795,105.43142878657662,99.1919549284315,0.9978590300810657,1.045132584011591,122,37.443279082920895,0.24623710120620945,-79.86122621137346,159.88532086543526,93.6981873122673
1093,Cycling,-0.12038856931131875,5.243816684400149,9.439590014430147,0.0027175739273508324,0.010189377660340428,0.04801885743690783,100.45387548089074,108.89177501412071,0.7215839077718321,0.8830707444502629,62,37.76254303100872,0.8636964590026922,-64.66278639552714,37.102253097736835,70.03016359318778
1041,Jump Rope,1.639906358189895,-2.1951089376400326,9.5257149692874,-0.06717134835608478,0.06564575198580683,-0.0020573582365561167,93.16184674565697,93.54132046985659,0.7138135480134695,0.8202864131749834,105,36.66173724109038,0.3138187803271616,-83.37745939658583,164.3474583790758,74.66981386985123
1098,Running,-1.967760192246253,3.3851270946511764,9.142850169211437,0.04860454093782304,-0.003822256361424919,-0.002409836372369421,92.49472226443358,83.0392670922598,0.8059072808075965,0.8790085923527755,162,36.55478905678326,0.2451530295515314,-73.80345322116654,173.4279890828182,55.19483013380462
1006,Running,0.21637503422608623,-0.46113516689738987,10.142351179029607,0.06517167207578686,-0.037769178867187225,0.011529115376444547,93.7673646413414,57.46705488409191,0.990795160980801,1.101872053826194,170,37.68505736650408,0.7518337110596511,-54.02571217402543,145.94065445065905,45.22637299884397
1015,Jump Rope,-1.5951024682767792,-0.1268444987157122,8.205671506718543,-0.018001574849747876,-0.07211082369340271,-0.08670603447561692,97.01844189931359,92.72572687967474,0.7956025461198597,1.2808692484594535,108,36.261056115397274,0.017592487993914885,-83.35742222392238,181.60958174684703,96.33543548121544
1089,Cycling,-1.110070376734157,-1.0084174082813981,11.493566469528293,0.02621020854507733,0.032400159257701996,-0.07966269958947181,108.61058535348037,74.34335279431954,0.8229652392625811,1.0024976971093742,60,37.13515501180845,0.2680117320860753,-63.47216698606641,41.76745459894591,100.0
1059,Jump Rope,0.8381111289177625,1.1742557471068382,10.995220671521714,0.03894553401060288,0.08470490392059869,0.054344780629340395,105.99356827307203,100.40741016378458,0.8902231183625696,1.3947727151807872,164,37.231901059997725,0.37539522065117314,-81.81958517776181,100.5315474698378,52.93533082646675
1001,Squats,-1.7849175800485488,-2.1596613196651266,10.27820226190176,-0.004562877616581425,-0.04429865041232504,-0.03384808354587523,98.65603122452634,117.77462401651111,0.7072335517979194,1.106330940116845,81,36.95334244228792,0.8822379617913818,-73.37003789871336,127.82081108306988,55.18443721038018
1000,Jump Rope,1.1013664345544678,-2.760493554351258,9.737890670079816,-0.055412357635893264,0.025668628431901014,-0.006647567410484763,99.86153419575147,112.33058267675938,0.9693290732557565,1.4777596356732206,152,36.46317043924434,0.9504418025483442,-68.37532462501602,123.2766644325226,44.35760075722697
1047,Lunges,-2.0282466699370874,2.4152572940679096,11.028839295072554,0.07970410659759225,-0.06878078578403754,0.08062193180614634,95.31218915332829,90.12372735272714,0.8558329052663296,1.46790896861059,73,36.88829066081339,0.7164779669139498,-66.90774327241009,173.59777755999664,72.63716728613211
1011,Jump Rope,1.00047060515724,-1.2059585982104668,10.489404936780268,-0.019626085246439936,-0.027784833853094562,-0.004393372796479235,104.08705912944261,102.28681515639492,0.8400432718012174,1.3412933558667706,171,36.843893133901126,0.4925317810096598,-65.89954649787379,50.98135991484828,45.83885400901454
1068,Running,-2.3242969043677677,1.1191321793095266,10.906637784218093,-0.030456738460690493,0.013396839268727367,-0.010504440705358054,106.05531342924075,67.03129702489875,0.9582179986619891,1.4526838473026327,151,37.24816418662188,0.6406215490576886,-64.39474338436311,43.372328182384614,63.161600758273515
1036,Lunges,-0.9267190188849233,-1.628184115344324,9.740947917740161,0.0819395965666963,-0.0864147042835201,0.04480387947476447,94.77809391335153,33.15123367291066,0.9859229768074064,1.294967253312778,144,37.686702103946295,0.41400105168133305,-79.1292520930481,58.14193302301077,74.1059649013376
1031,Running,2.8447415746943423,1.0626315643418731,11.589313085864168,0.030502938377810176,-0.0009011626364691244,-0.029913245827642987,90.83643247572931,111.25252904185353,0.8270275694940504,1.426908232993827,104,38.42058780881543,0.29882583184866784,-73.94530057131364,179.39450938844544,84.06588730134706
1008,Walking,2.5628195546503294,2.525319748167675,10.966887875689856,0.012871503802900669,-0.041835023670857285,0.06014646146410198,102.4777788632594,62.8339126878993,0.7517323237879692,0.9655316021564146,155,36.36040815043582,0.9506880681396285,-88.50725345699742,188.7951457049392,16.446742719106926
1098,Push-Ups,-0.618786978775718,-0.7906820781226747,10.309536295435931,-0.04853803317012753,0.030237961286913695,0.043777895971824,101.25024238270633,116.96398230887569,0.9447127810006218,1.0417941401237591,65,38.182542774852706,0.1153902290099238,-59.249720938745,118.22971981129947,100.0
1018,Running,0.5849408790448521,-2.9001616601789717,11.055972920431156,0.04014020291066103,-0.00827003210767649,0.09151665976541684,98.04262310057753,127.11110494760472,0.8209781263667462,1.327051046203403,177,36.71044500097565,0.346393568050109,-56.5160199284439,105.26066756839876,43.487274926957156
1047,Lunges,1.806102028327326,2.5331908699648578,9.38083805816603,0.1448259302759873,0.04697195097337916,-0.034517152163859956,102.8778788354642,149.07060699349154,0.9806636618535298,1.09719286674459,124,37.47843192500351,0.8990889599605931,-82.03052946057818,125.02326552240471,68.34994604764071
1079,Walking,1.0219442616307066,1.389366482287337,8.632499640652973,0.04402538319392697,-0.013979914337240749,0.06834873231012069,101.01226595970287,154.55596341234968,0.9849696951492949,1.3861292036771626,80,37.36684236995967,0.7231414305874169,-81.94224141481273,127.09845347087187,92.9629301974883
1002,Running,-0.41019636968223616,-0.7103568506569622,10.121550513047476,0.024804424814628242,-0.06811897599147547,0.027704605350196324,95.01163153188385,31.368386020261187,0.7344487095164108,1.4143472101114427,63,37.39237104657066,0.02910145132297659,-88.31854391238318,42.3578939392642,99.75224052513785
1019,Squats,-1.1229529710544996,-0.3269280799029691,9.742909554186532,0.036054639824304804,-0.07434800405181327,-0.06626831918375109,97.95457951245444,158.74864721610285,0.9869661901998554,1.0098106393046473,62,37.808396529297035,0.023099673424247125,-51.1846470883005,140.41806750839476,100.0
1023,Jump Rope,1.3021547144368946,-1.6659782943745292,9.602282657722371,-0.016405766658427124,-0.09545047517789847,-0.1298088212222328,98.56227139494483,118.79238140424093,0.8104810976335363,1.3764155657327013,172,36.95422076437249,0.5165124626245746,-57.71253727531084,95.94670944620086,47.818185745810396
1053,Push-Ups,1.6960549629217518,2.13038539866294,11.016312039349405,-0.016882536479657425,0.03164789163049946,-0.03990134410476648,107.60495988951128,113.6581408486446,0.8938757552971571,0.907984989745605,89,36.797749908092136,0.4842530562300217,-75.57187188375872,108.30257218112858,93.22026296961968
1032,Running,2.573552751591582,-0.8020734117159676,9.967139213210631,-0.01752227421181083,0.1278865459634497,0.014617390367287637,109.21808308257918,31.977702375396202,0.7104250245202137,1.0339376980757944,90,38.132086432963696,0.44299153865631824,-70.72366914120698,15.760154823679542,79.84300836718182
1023,Walking,-2.5308741351796065,-2.12806280632121,10.063569073535485,-0.028747497769343846,0.021761906859256577,0.02186739663039037,107.86002724792993,141.96034354527586,0.9666652822251498,1.1625754657849723,93,36.550237600685676,0.3023437618390089,-78.32132157396526,155.26576018089577,100.0
1074,Squats,-1.8796871823015784,0.3204688222687072,9.472947441245905,-0.017622243288800882,0.08360234410021705,-0.0029540532642532455,104.3835604810396,48.91388814221743,0.8924791988034595,0.9585106334727246,142,36.45061509327786,0.986638719813639,-66.11024126711662,168.73131264089753,43.87090320887549
1071,Cycling,1.7428854032206211,-1.2900200423678096,10.681123139279526,-0.01785535961244594,0.056678664539451,-0.0025064682961516388,101.69985467211643,138.85292001129534,0.8930663400869258,1.2054874807026394,79,36.039018591638154,0.27198732298338146,-61.307663506659665,127.69009524756385,100.0
1035,Walking,-2.327295820125265,-1.5450218637946622,10.50187578130792,-0.012234225441706567,-0.025916800493704296,-0.006299675005009504,103.7852327093191,32.02313101363308,0.9706528479932451,1.2050865551023526,146,36.52644445507297,0.4900402064405619,-72.10526088032512,152.2574907063659,74.33203480522543
1037,Jump Rope,1.8578249323678993,-0.6451488056429182,10.673659676894294,-0.013633901579004994,0.06326579904953128,0.05156085668691786,108.78218441465378,113.97535412489097,0.8525041524722029,0.944832026395634,113,37.29632858329177,0.4048930968230663,-55.05623226833506,109.31414060269937,80.08914086430016
1083,Walking,-0.3223987589780881,0.12953297325055607,9.302736033363821,0.012150592850485043,-0.02392873457562575,-0.07181448491415358,94.99997470447664,86.52419939007761,0.8231549921087651,1.3569489414198197,163,37.34627218253529,0.17024942596174208,-69.3189655112476,127.48714200592556,53.727863749942614
1098,Squats,-0.781370729005027,-2.0716646338721203,11.104088460046995,0.003939650910392294,-0.022935393476917955,0.013414492876713913,100.7024101534681,56.09967477771357,0.9598386256876948,1.2421511425880478,84,36.63605122798884,0.20261881912527857,-84.22986923688757,84.96862270801533,100.0
1088,Walking,0.3081428944072039,2.0777233878184855,11.638768423766374,0.008368122675585152,-0.010429616296815509,-0.04113756379315208,103.79216038000816,43.98298093015644,0.9227261535614195,1.022432354777468,74,36.180685425103,0.9183027420097729,-65.10834496649434,160.4561103618774,74.00269563986801
1098,Squats,-2.018052678353248,1.0157395680986814,10.642038397324706,0.07611487816722413,-0.008059901116356507,-0.04532705325287172,103.5849400264855,87.21660055102244,0.9846926994894702,0.9625293484292043,97,37.861601990863015,0.8582797228559551,-71.51076136368789,98.9714767502536,64.42730268390885
1024,Running,1.2360222458975274,-0.5480444861590967,8.99071171275571,0.0038367119358255724,0.033068473159307374,0.058811528195341814,95.04557919153673,46.029754691785215,0.9820365679931597,1.4151250971841454,82,37.89493837140575,0.19904430582035237,-52.573125476730965,139.2404518395877,100.0
1092,Squats,2.534455496542045,-1.355015229445497,8.997797715763799,0.11054454964003907,-0.03354433679454027,-0.049163153845997135,101.73463054779504,93.23805951983618,0.8146978493680721,1.3850195716572569,111,38.4945909907289,0.8756626239095135,-74.32424316256346,128.0715819377059,59.2640199572786
1017,Squats,1.3058643237213623,-0.13383817937499642,9.424623044406912,0.017634476991130594,0.04445513892914885,-0.006975911694993083,105.91826284840313,111.27821762487079,0.8340958870424253,0.9608324723988685,125,38.250073926336796,0.20918613008084253,-73.88537043399583,143.43975849329246,73.26840168931568
1081,Push-Ups,-0.3697630388312112,1.3491525611335828,9.23562278598148,-0.022362979544141875,0.04373720415157354,0.09792492009394974,99.50157960100488,137.55994516895657,0.7767954861372335,0.8249236585615561,116,38.31515516129411,0.6265463217476971,-63.96906440873559,159.19101627379243,61.99260837386482
1065,Squats,-2.3070535616481616,1.1168760407995186,9.728907374312737,0.06747916195234997,0.017148176622224242,0.04190384840408373,105.8659615339747,118.22442683377267,0.8981943667415703,1.3631728170201867,116,37.99550956435986,0.0812805233206938,-68.92055126694288,107.41556150266908,100.0
1053,Squats,-2.2493811843043994,1.5877564506767672,10.43244246636785,-0.0039763633854099315,0.09698059543037224,-0.02274851564801891,97.19765195509109,38.47596967179956,0.809362591026666,1.2308559886855301,138,37.53875713345625,0.8803696262591182,-75.02200489846261,164.48253035857704,39.067621576597034
1034,Cycling,-1.9944649533589616,-0.7205662364704829,10.08995244074985,-0.11968420758670645,0.06436963243291542,-0.018618652920294045,108.77520254327519,69.96622923121883,0.9358301939823013,0.8706174196374218,111,36.321364894011275,0.05150029946546697,-50.40902337279642,104.47887508160571,100.0
1079,Running,-0.018417415668476038,-4.387387768795016,10.002289056386289,-0.00020015709175919374,0.053486464510023236,-0.061360144932914654,100.67856880998202,67.43721903122506,0.7364652282192731,1.2111507443532266,167,37.555783243639695,0.5549428892511367,-77.91257960002332,191.760521344148,32.19280784478185
1060,Jump Rope,0.17010009490890698,1.8717167968743704,9.558797250199856,-0.01245879189719789,0.0033076687271625747,0.0650322621133026,101.91895901585228,148.95421505124096,0.7349208553497237,1.116527879753186,94,36.13988965103657,0.779711525180385,-78.89884832059886,153.0076322368109,65.11413210475354
1040,Push-Ups,1.3026652661114932,-0.25079421460852797,9.72615407283545,0.08032736931441675,0.017588306890716287,0.05056759039605339,90.62723137609177,142.81166577105927,0.761336614425819,1.3421852292315841,133,38.21324777817798,0.1168347364106812,-55.422894859115864,42.51691345175219,72.79446856476588
1099,Cycling,-2.6940434797246136,0.9992490982074931,10.596575507529002,-0.044878334250018345,0.02619036815438769,0.03433011369348906,93.40538274257189,78.1192293855542,0.725287656531224,0.9463593895111111,73,37.20455333853549,0.4044802675001885,-89.86508225797778,167.62104955905195,87.52157178459618
1032,Lunges,1.9668153455885997,2.503843131960453,7.788041972500186,-0.016632740903913614,0.0006620686763802635,0.03984164724045693,102.65867760942089,39.25018326473554,0.8860094823034704,1.1172097210135186,150,37.743682079939504,0.0419501514900501,-81.94987356380369,114.80165555326049,80.79543047222685
1067,Running,1.0416094784180565,3.6516129498565224,9.788609591521269,0.06338196880302294,-0.018778473015423548,-0.03872623046987119,98.39740743564542,146.23395131461535,0.7442058298050216,0.9093708799763418,177,36.13060915923991,0.6827525773399592,-66.38213246952095,197.0475820150344,17.16396495640162
1032,Running,-0.49025443959320225,-0.9747322172112309,10.087987594927325,0.01972042663620901,-0.1202856371438156,-0.07739562213679253,100.1632758091635,145.46469388534433,0.7479888752402962,1.4702690594675927,73,37.335621057307065,0.30744959496135194,-83.50197888621341,146.57561829797018,86.19348026111179
1013,Lunges,-1.7846423125981503,0.2009398607484669,10.583583068547293,-0.008572841248656695,0.03588827045624116,0.028027021265190456,91.25942817467401,141.11699716399426,0.7042684671187498,1.3451167098476149,158,36.753158494633404,0.55939524463847,-50.567843091056474,26.034241848336304,36.333293909676435
1020,Jump Rope,1.8737109625366783,2.0502546909081687,8.789954060716177,-0.0378242833236517,0.05207236084416772,0.044427893681069724,106.68270476820769,139.8606129056152,0.9346270043870829,1.3157056985509776,92,36.712420664343114,0.9327322704203617,-71.43217510313477,85.04248124596627,77.56252069870013
1047,Squats,-0.450140941856076,-1.2664185277844935,8.737090317546881,0.017587286343751535,-0.0580559428078418,0.08035233415634814,105.69011204592434,92.4330201412001,0.9436888166270443,1.2831446655145613,111,36.97413978675796,0.30585810799484237,-66.10543700157797,108.28232650792064,94.79674857010168
1019,Cycling,-0.03002834901664317,-0.8731673906856421,10.383954994878135,-0.001465057160913441,0.03025843248602458,-0.010044510313671443,93.70707951443698,53.06611479244777,0.7486067249093319,1.096335509726467,60,36.00159865215134,0.0486274716352777,-83.58506139579228,169.41258460036235,100.0
1007,Walking,0.5754179561818982,-0.8820578676883124,7.895547759743085,-0.03839146326035987,-0.029576333915876205,-0.01733756392901596,102.68658714514758,92.0734465601156,0.9218573302801674,1.4462976909922012,93,37.16665220430043,0.6756277676987004,-78.42487596512288,148.5756515226568,74.13273618555002
1006,Push-Ups,-1.369798358672417,-0.04213547011203334,11.132189110760786,-0.03579232706639326,-0.01832645912035366,-0.011963010233472793,106.36630423308543,94.29771018703043,0.8300635369472078,0.8510419083489038,78,37.216416709019846,0.7868411345141675,-65.41500869282338,80.17841341621138,76.5905860532803
1066,Walking,-0.42327086853787343,-0.3301855204349551,10.026591991492811,-0.04072360572225411,0.06553802636816769,0.033537191271644395,102.817082728312,93.69112792183189,0.7718784648896173,1.3622813501752664,83,38.15782728959766,0.957868559877576,-68.0178650685441,134.1522106254995,47.396490163176495
1016,Lunges,1.29797535303057,-0.8906929833844868,11.358721212843438,-0.049627780688193984,-0.04953171951070069,-0.014104464133762318,96.2079619059169,100.0404361949651,0.8864153824221487,0.9506629124740129,165,37.121314019706205,0.1578008770256658,-58.62544218235335,119.61307250069207,62.27359174109182
1032,Running,1.1461441177444125,-1.448636123409389,8.712927623430488,0.04670168799861679,-0.04960738943466101,-0.002611954338166995,103.12222300956334,63.49541298885016,0.7535452223041255,1.0268195689436936,63,36.908890734669185,0.3921399251161498,-79.23067285702736,33.94999570095731,100.0
1047,Jump Rope,1.1596608100428563,1.2179104925929374,9.36364053128176,0.03996966793102191,0.0902417182821999,0.04155264456194769,94.20923495366425,77.61135354736996,0.9270650822959106,1.1636008102771158,95,38.48686762840616,0.8441404600254748,-63.85831413173864,54.6231516697341,73.06773543466764
1075,Running,-1.7327696267106476,2.0067465314491755,7.392131673073115,0.04678372281928965,-0.007277834926819177,-0.031291807761686795,96.36509994558841,86.44425695525103,0.7142845682711655,1.3478585077389056,136,37.42803331150624,0.8068713932688795,-78.36097977004539,74.81323941571974,33.61406715205458
1058,Push-Ups,-0.3548705260937114,2.2240721912586223,9.004310237004724,0.00022497743842622077,0.06232727966155338,0.06955769927108817,94.80139306214357,47.04575723714498,0.9877392798783744,1.3869744353576157,117,37.18153302158535,0.6247957073338625,-66.52989521015519,47.14184720906555,81.8031489637104
1085,Running,-0.5945907525717073,-0.7216103360767264,9.616153119278122,-0.012131439390007824,-0.07993514309144673,0.031654450366328815,101.13850204780414,89.19733749299506,0.7215625761125873,1.2086125751120873,91,37.23983958637095,0.26936854520269393,-65.79876129259165,38.52543070770486,87.17848140710396
1021,Running,0.6377682634120526,1.280587008385916,7.837292419991564,-0.011219105494566825,-0.07593016347954266,-0.09288103146701578,92.16453293531097,135.3610502190471,0.873834525774607,1.0821248422542797,68,38.022953243772015,0.2840352906507776,-85.12643554582044,21.057576324754535,100.0
1029,Push-Ups,0.5034869844733465,0.3544888540916632,9.405373187801601,0.05105507864530541,-0.04564722577892106,-0.025767709826418246,108.66620760696676,137.6477405552739,0.9706582870367135,1.462551694982247,162,36.851690922425405,0.12400299462414255,-68.05467557254936,175.8894874656967,81.33026588157341
1037,Cycling,0.23314099611440478,-0.8560070229199881,7.812659823139756,-0.09100739109979145,-0.024073038826634446,-0.10121717491030545,96.67024707325734,83.50329034713394,0.7035713406543551,0.9725649070875578,139,36.97290115671486,0.9218536737859097,-89.5224680018327,64.8992494133222,24.41688968272554
1050,Cycling,3.6986009331298937,1.1013273280622942,9.542539815088576,-0.025724305167871123,-0.07016432983265561,-0.009833969914340025,94.37940254211603,97.44508057096596,0.8495543382967171,1.3621662031164448,173,37.889683398343664,0.17293151463944534,-69.95156994501234,65.16091474737757,52.14893374640109
1053,Push-Ups,-0.4362091202160565,-0.9249075810682454,10.947111927108237,-0.04436728137522087,0.01846482382149998,-0.024915555206026785,99.93099627203662,34.37454317755736,0.8050020892932039,1.2284347350137073,126,36.182459349034424,0.5728866011799064,-62.099124455677,49.183346111729534,57.08334643020016
1007,Jump Rope,-0.6117346291028164,-0.5642649041725327,9.765020249885879,0.0679943773294204,0.021729708432839105,0.041742737960009435,95.53995636909433,117.6762323409176,0.8740996570773727,1.0638265118196497,175,38.16292289535815,0.5843514169821129,-87.08669084040045,100.32550065413777,42.75763163372143
1026,Lunges,-1.735124505504084,-2.065094553755445,11.458207372611804,-0.02387287617235592,-0.044907143891926876,-0.0440509174477667,100.69808172765289,82.59876478309221,0.7676372160212975,0.8009575890544758,79,37.075506741169924,0.36960544119526884,-52.451567343318914,107.70597390525076,86.85853685258687
1026,Running,-2.3067709888933057,-0.6963316461498389,10.586292563394611,-0.08179944177198872,-0.040929934969540095,0.019386750096724498,96.97018299564171,87.91209880083495,0.7194697651695174,1.1126195109440387,133,37.45323243876412,0.35251846100545514,-71.64977872042184,49.573458138765204,55.941515955816506
1097,Jump Rope,-1.830476065823663,0.3807918135218773,11.148147848606971,0.01117118211233948,-0.03433907169257807,0.028442380473421697,92.64133621538082,143.5774545333694,0.8877799110546121,0.9937039982796095,179,37.89369039814959,0.6685884185582797,-52.46334897503752,125.6283641940936,39.75956428373367
1020,Running,-1.0780228881649196,2.353401743516243,9.035054759121717,-0.018505709744695703,-0.05824428994465206,0.012859742611400713,95.31790484054524,90.03847649287908,0.8250547718480207,0.8730426293278924,121,36.66512980609836,0.38829777794853904,-85.7040630523547,147.36999232281232,73.39618273122984
1029,Lunges,1.965109641656779,-0.53024316930253,9.010858371607398,-0.027846440384248095,-0.14477788499889588,0.05700617908862643,98.76879689923051,32.75499200962086,0.8867456616118689,0.8526109957366594,117,38.22578552080163,0.2551153933380007,-52.00389622321861,81.02961633343587,89.17817225627358
1096,Cycling,0.05874585654278819,-1.557253720630401,10.14561341638537,-0.033001597836291384,-0.0042520153072432764,0.10341444254209378,90.60586452959251,59.57381581297811,0.7631617440513528,1.0432908291181213,81,38.44806243064153,0.39913170240003093,-85.63211602298612,121.23582240291336,77.73597218287577
1027,Jump Rope,0.28999600042910006,2.2460534564011874,8.222297908367143,-0.034974238958040346,-0.021521884635048838,0.005597097134953375,105.41285054029524,91.83067986007367,0.8016223788860445,1.230330172118454,171,37.23568590351531,0.807662077665546,-71.54016806194656,105.43736198124479,26.520734058704775
1063,Squats,-0.14440996230314493,-0.7568286556263266,10.271143749762091,0.03542801574283224,-0.016407292241328676,0.020258975844518412,102.43649129180832,85.17151805730964,0.8685044168093831,1.3862635207553415,126,38.342343412581684,0.9664784551311856,-52.480317330925374,47.15419568765941,39.98430784724296
1096,Squats,0.5479514895326829,-2.6225724842112976,9.476080183453071,0.011189368327892179,-0.0505901760504386,-0.04401384769160552,102.02719214556708,141.8481178464625,0.8779338334974182,0.9284942714631289,134,36.00282155631746,0.6359502304538448,-80.69167198444514,148.70208786716978,58.873266240016015
1068,Squats,2.1031082208267646,0.19964060270517608,11.129996837546658,-0.009898287781526462,0.040524874957513356,-0.05097617070116213,100.92099863765532,100.47787620980166,0.8116944423322795,1.0972507799163347,148,38.23559457408882,0.7821012254841064,-88.60860076565064,162.276075286569,32.748366361784484
1060,Cycling,-2.990896254402054,-0.48716020991876263,10.479512254079411,-0.05491194384231682,0.12126957947085407,0.051691482516636404,101.80626344650138,119.65264644896573,0.7840159616849669,1.0743692980995065,165,36.77761329937827,0.5328248613126102,-58.27557299887117,133.27069196156185,43.92498034011261
1047,Cycling,1.8275059733780705,3.450593464027757,10.896706430340128,-0.008444666169396034,-0.04170424280105778,0.045076275305167904,108.6930390541444,91.0120286156511,0.7821101888465787,1.159375806445961,107,36.778738561819004,0.6248231420934378,-66.16465449323961,71.54024527649975,72.61790136554737
1018,Lunges,-3.77255767880251,0.7130490515208183,9.045793918604954,0.01303139288000131,0.0699848069486174,-0.05148099370856316,90.17138421621482,87.15524542769144,0.7524098054262695,1.366711089566687,67,36.570222161924846,0.9880866567365598,-69.44315228394237,186.09057393776723,61.59877188381299
1003,Running,0.04230406728289146,-0.21951353048225414,10.84821026876173,0.014932722412974525,0.01833249060736469,-0.06541102712547363,90.95599419315498,88.01726690166566,0.7976214886988762,1.1875516525994643,132,36.79253475287725,0.4384188647019115,-88.62626462587127,96.51809371907362,61.05675775799616
1034,Lunges,3.2878610321166226,-1.386745813883405,11.244712494364283,0.008044219149588451,0.0017709945891216936,-0.032436840234029485,93.82986819861604,83.41980406019906,0.7598321011039659,1.392658439451606,74,36.53371145924659,0.06625469695419994,-63.870749247726195,60.51691222316859,100.0
1063,Lunges,1.0209869092973158,0.49525026178945103,9.76128617661966,-0.046129633341376416,-0.017206136828141563,-0.007068898471705537,93.346027599863,100.01584016104644,0.8901446218689835,1.1629862292482844,91,38.26467276577493,0.9570069178193547,-83.13506592461741,87.56457795617173,68.5235514628713
1048,Cycling,0.5595884029809548,2.185064925092691,9.060649380633512,-0.12015882962960096,-0.004160843511699609,-0.020456320424162205,93.62388918938365,62.55764222796848,0.8707200994726269,1.22269315562689,112,38.24755931803342,0.7930617209035477,-52.75213279181219,141.49426746255986,61.06251020134805
1016,Squats,3.00291895020446,0.4677212752158907,9.078212798765591,0.08998093800259667,0.057479534484931316,0.008025743416612635,103.438877716973,145.83717519943673,0.814776647101276,1.1061682697450927,126,36.25552828730156,0.3983103678635713,-62.57092195697272,170.72703927525734,70.40319574582244
1043,Walking,-1.0545943470017158,-1.2711445381769186,11.039012992015966,-0.06548184370542658,-0.05690404804782562,0.04585312561863028,99.1896660210033,73.30112125220347,0.7977490059812183,1.3761669062069437,63,36.35714607216623,0.9823950536227688,-61.71864447864654,77.74934486374579,79.30421524056675
1091,Running,0.6509511336975713,0.808209317627931,12.484345742423312,-0.09824789793334693,-0.013750336557572568,0.02310521893774692,109.83557756669387,49.17809844305509,0.7712842600583927,1.4466790444552569,89,38.15504659752666,0.34553575034862616,-80.69678909554878,54.198644741781195,81.99228646578246
1029,Cycling,0.8671756462108395,-0.07291034230922325,8.818354929824778,0.006525780650204784,0.062450010391125146,0.026806049884206186,94.5377182960589,42.551562217706866,0.8606374926878023,1.247401316686202,72,36.997344427181865,0.3721201960080287,-54.769846477731264,129.0336950486889,98.52830950418921
1092,Squats,-0.7836032013405386,0.6729196549772433,8.74147994995744,-0.08542592516153605,0.04918573467639986,-0.12257681972044387,96.21660202054989,31.74497896561659,0.9756708293037064,1.3745477144210327,167,36.4231791933482,0.6097313531899208,-68.49069716867196,185.03086902019425,57.55380665847055
1045,Jump Rope,-0.6511652692439708,-0.5322110252763306,10.72141418067448,-0.040239937428744266,-0.056129296947512175,-0.08069515100595413,109.68481433603299,84.97129021369199,0.9057109154166811,0.8413023337993702,80,37.27667350609142,0.2743473861553567,-55.71663288743078,44.825739076290105,100.0
1005,Walking,-0.8156691498350095,-0.567442911391818,9.046086470633357,0.027442521290441415,-0.009129593889052262,-0.03982284038230288,106.63516281604494,54.389428510905205,0.9233244142106702,1.4342782260126603,100,37.041670124800234,0.6985714851307327,-79.16210100670897,162.57368263687965,78.28994693397243
1098,Walking,0.13097246101284582,-0.6266696961476697,10.818355384228271,0.0886343634237023,0.03640039239170136,-0.03156968240797533,99.39598441357066,32.81422733634223,0.9503133590969224,0.9322475467873872,169,36.54790388434491,0.15285030395050592,-59.78153147607016,100.555364482622,64.34101458732151
1036,Cycling,0.8200374086569695,1.4133572272460424,10.265346173526646,0.019375590413618835,0.03317140596605485,0.041991391746961676,101.0919377109198,97.60254101763809,0.8054904920013546,0.9795642991280655,78,37.80188054569408,0.10802531935815352,-67.0173238535981,161.90737575279744,100.0
1023,Push-Ups,0.18484540937199329,-0.552337912861637,9.776022697502038,-0.021957963543844012,0.04875672606216439,-0.04394507157340658,106.86355841305681,118.39721132459898,0.7188627346343462,0.8373310477447224,162,37.57822328083183,0.5348780075641556,-88.06322776757673,106.05281845692527,31.517630369341685
1092,Running,1.064192726144783,-0.6895960970613406,10.241271534521688,-0.0025709777203420958,0.01921429440836489,0.03334638306786841,99.61960492092656,41.14763661844357,0.8867676409964933,1.4757800818818412,107,36.2491540338886,0.5554936823944011,-73.78630704906853,81.69227711742167,79.78288937945891
1045,Walking,-2.9537209289603212,-1.4130988523435497,10.180198369153395,-0.09042929785874514,0.0275976573997892,-0.03925528694031491,94.12047447164169,89.91970047955576,0.7566016873684097,1.3964075946418635,145,38.313466785813354,0.10665506962969062,-82.6435813950614,142.38079003983364,61.03078939939878
1052,Cycling,-0.327376745614255,0.6810207025751512,9.620393502213824,-0.022537605458257507,0.017139821096357935,-0.060044214369640775,106.56889077108771,126.67172821809707,0.8707130949986999,1.4392292228637587,122,37.39617491432517,0.9641762611311511,-75.63305648484976,181.11918597303048,40.48354752863234
1094,Cycling,-1.5351289655259692,0.46755270319682785,8.043638968361506,-0.022489080196347218,0.07898665387639453,-0.05772248295218958,100.75544982551287,158.15488673109527,0.9218530699471195,1.3930513174320105,79,36.625511217658854,0.5732866576070837,-74.6659346293911,70.8478287703344,92.53662120481957
1098,Squats,0.4525837690243475,-0.6731523367329464,9.978650728589036,0.007666433106859008,-0.02109055897156091,0.11291332466446112,93.06085194327643,116.73474480353292,0.9350914906443509,1.1356713869049022,123,36.51572953768091,0.1510349924969261,-71.00286587886461,97.54214564893064,100.0
1059,Jump Rope,0.4303761430084848,-1.0640680613367914,11.373060366064164,0.09710948063468855,0.0024095581472608585,-0.040368248425499714,100.11171662368795,61.82914160523768,0.7905517360742547,1.4468573538635345,96,36.3398699534305,0.311442524332299,-65.98838229086148,53.58611907233927,78.62496194559446
1096,Push-Ups,-0.17343317243618295,2.8142601198415678,8.191231336795477,-0.09683976443661196,-0.050748441615885466,0.03454936044301704,98.26406761193718,123.15197317126994,0.8537299697707945,1.4786309742990318,90,37.06159351597588,0.8002342139331626,-67.16089390007204,44.847798087296646,68.75955871127753
1062,Running,0.7654185157981067,-2.820664582687257,8.834214979861056,-0.02038388057872434,-0.06060108834022063,-0.07790992148751003,107.53685063763515,107.7308254865779,0.8862895288831577,1.1517968837525783,133,36.33885253272709,0.5232315278655318,-88.4403438118002,157.79912705451326,58.648356928811154
1084,Lunges,1.4967190773960415,0.7397580048025818,10.226826974766011,-0.09167547719959229,0.016247835052919043,0.07094645020893675,92.52110862721406,57.5339075156012,0.9458442165101866,0.9229373469301868,77,37.03954103148806,0.1881483485465556,-59.97243126045113,48.12618217080406,100.0
1031,Jump Rope,-0.0907807834594628,1.9371053223240122,9.838591862732281,-0.025168204662525402,-0.036209313297092614,0.017452057253185653,107.50419608896051,140.64440736018213,0.9284165995314841,1.261035756274166,166,36.371926070585296,0.10284897206180477,-52.03264462108927,160.7304525535455,75.80673312611029
1086,Jump Rope,-1.577542332149553,-5.08022064223245,10.21118215958429,-0.04323010705589968,-0.0028842801448678065,0.013698943439644357,100.2442203362057,85.56257553958811,0.9963925962932111,1.4828068028974994,162,37.64201880380973,0.4307744122374848,-76.05274844060133,91.55123984965026,59.98097666029637
1032,Squats,-2.371886356379221,1.191210090114269,9.100681792172338,-0.07471731537507001,0.08088746552621046,0.02069136615716595,98.08728859962295,155.05709511543637,0.7024254029590032,1.4105028019012125,169,37.963105054215895,0.3374147086864342,-82.81012394646966,199.059257447466,45.31045619387844
1066,Walking,0.054165262995192316,-0.3303819022441323,10.962458286592307,0.045654601526488967,0.07799688511864104,0.026199986222267536,93.23934368805881,123.97713096821114,0.8312468322589399,1.4032706233021353,79,37.373806868806895,0.6559173524819735,-68.39993747538459,47.49486945634496,71.21778418428752
1017,Walking,0.3628000522703113,0.38408229642488895,9.84690056569021,0.012782385192521478,0.11120223893441501,0.040453362942244,104.01635925277358,113.79321010213688,0.7768133459128383,1.4536726117650973,141,37.700142187137246,0.9252469869511654,-61.803482870234234,27.665818577436944,38.801249787896346
1024,Squats,-1.4542858342799685,-0.48485694678313507,10.496985522343058,0.039792781482702294,0.08188262541995607,-0.029954870910451403,108.53613418220081,124.68586887195305,0.735968016143462,1.425766582386783,70,38.345946842710156,0.2477302857741588,-62.84380421889347,24.332283224664167,100.0
1094,Cycling,1.088650234744549,1.6130901684691155,10.120277410971097,-0.026582691233374724,0.1201509095892745,-0.03287941468860611,97.5075470779864,92.1526124463688,0.9734545984501554,1.3433971648128051,145,37.59592882392652,0.8552339332828451,-65.51561689996566,168.72942089759812,53.61274777312826
1053,Walking,-0.6884353287368602,0.544679012507036,9.975494967960993,-0.0035358237890041368,0.02182648339062806,0.002461193902403385,94.83170001341666,95.67944211421761,0.9993886198287059,1.302790982513279,103,36.91039549545971,0.9204619784452005,-84.15070991487165,93.17749910108523,76.896319648546
1057,Push-Ups,-2.4846492977567256,0.1975798343014737,10.42683365702813,0.07973203206081574,-0.04515102913222918,0.03422138802091545,101.09733833998314,140.6569601078167,0.7541788623714171,0.9853370216213281,141,37.12370039668729,0.9020025994699015,-56.52700422388007,10.593626433000608,28.927207605437548
1066,Running,1.8846545135177837,-1.3482909104378895,9.986487953966952,-0.00013600975545563322,-0.05001962847427402,-0.0033327738111244634,105.9237189686774,118.52070976365538,0.711530017840409,1.2349380149999145,123,38.15131306518009,0.9520773299454354,-72.9751375032474,176.20655887563385,24.34728018210729
